"Time (s)","Linear Acceleration x (m/s^2)","Linear Acceleration y (m/s^2)","Linear Acceleration z (m/s^2)","Absolute acceleration (m/s^2)"
9.003500003E-3,-7.100690581E-1,-2.070300257E-1,3.488787997E-1,8.177872068E-1
1.895850000E-2,-8.140474628E-1,-1.672941023E-1,3.653457284E-1,9.078205162E-1
2.891350001E-2,-8.054082017E-1,-4.949171036E-2,1.094224548E-1,8.143126392E-1
3.886850001E-2,-8.317993172E-1,2.405222923E-2,-2.301388067E-1,8.633843200E-1
4.882350001E-2,-8.172866741E-1,-8.012088776E-2,-5.746631849E-1,1.002304664E0
5.877850001E-2,-7.244621256E-1,-3.182657021E-1,-7.927497107E-1,1.120085056E0
6.873350000E-2,-6.075132079E-1,-5.979573226E-1,-8.232645750E-1,1.185069541E0
7.868850000E-2,-4.076928721E-1,-7.577465236E-1,-7.079592365E-1,1.114270861E0
8.864350000E-2,-2.732219687E-1,-7.715354276E-1,-7.883058268E-1,1.136372842E0
9.859750001E-2,-1.276557543E-1,-7.404551375E-1,-9.447282010E-1,1.207096175E0
1.085525000E-1,1.735803708E-1,-6.219876248E-1,-6.028578740E-1,8.834230961E-1
1.185075000E-1,5.262846382E-1,-5.113004172E-1,-1.308723807E-1,7.453396656E-1
1.284625000E-1,5.959630566E-1,-4.637754178E-1,-1.246977210E-2,7.552582990E-1
1.384175000E-1,4.310557877E-1,-4.828364637E-1,1.151749456E-1,6.574233118E-1
1.483725000E-1,6.946389869E-2,-4.691142181E-1,3.266242969E-1,5.758270696E-1
1.583275000E-1,-3.212537024E-1,-4.485252947E-2,6.766345328E-1,7.503665649E-1
1.682825000E-1,-6.744727441E-1,3.437718415E-1,7.740620095E-1,1.082711668E0
1.782375000E-1,-6.600354570E-1,4.811495420E-1,-1.704732335E-1,8.343936779E-1
1.881925000E-1,-2.426489611E-1,1.204415327E-1,-7.652104944E-1,8.117461314E-1
1.981465000E-1,1.666259117E-2,-1.509967428E-1,-2.091239136E-1,2.584772128E-1
2.081015000E-1,7.443560343E-2,3.761279941E-2,5.336169004E-1,5.400947863E-1
2.180565000E-1,-4.984597854E-2,1.838227192E-1,7.179918891E-1,7.428241828E-1
2.280115000E-1,-3.076988698E-1,4.655786991E-2,9.561074674E-2,3.255574368E-1
2.379665000E-1,-5.690702866E-1,-2.097247151E-1,-3.357284117E-1,6.932092134E-1
2.479215000E-1,-8.323843311E-1,-3.999878499E-1,-4.307643771E-3,9.235109693E-1
2.578765000E-1,-9.398195366E-1,-5.482627138E-1,8.888872916E-1,1.404981630E0
2.678315000E-1,-1.038675634E0,-7.561706990E-1,1.542297269E0,2.007317131E0
2.777865000E-1,-1.060470107E0,-6.833439204E-1,1.192215697E0,1.735780524E0
2.877415000E-1,-1.005542752E0,-8.872144032E-1,7.298178828E-1,1.526728452E0
2.976965000E-1,-9.985730173E-1,-8.745718458E-1,9.239542133E-1,1.617317338E0
3.076505000E-1,-5.671371605E-1,-1.421794340E-1,1.518530676E0,1.627204647E0
3.176055000E-1,-6.626213699E-2,1.374203852E-1,4.482557380E-1,4.735063249E-1
3.275605000E-1,-4.557440844E-1,-1.518779182E-1,1.139534622E-1,4.937154687E-1
3.375155000E-1,-1.083525679E0,-5.963700959E-1,-3.169114870E-1,1.276760776E0
3.474705000E-1,-1.701780075E0,-1.101587070E0,-1.013286805E0,2.266340585E0
3.574255000E-1,-2.137806947E0,-1.333492905E0,-2.157868159E0,3.317350880E0
3.673805000E-1,-2.315528973E0,-1.702810062E0,-2.622004935E0,3.890520070E0
3.773355000E-1,-2.579836569E0,-2.336794712E0,-2.253928556E0,4.146849429E0
3.872905000E-1,-2.527384706E0,-2.528901182E0,-2.221254900E0,4.209155256E0
3.972455000E-1,-2.406513257E0,-2.174147684E0,-2.699141403E0,4.219429881E0
4.072005000E-1,-2.574041686E0,-2.061667720E0,-3.080892080E0,4.513098758E0
4.171545000E-1,-3.157165500E0,-2.364008531E0,-2.506413667E0,4.673150950E0
4.271095000E-1,-3.564047509E0,-2.712813071E0,-1.016279994E0,4.592887374E0
4.370645000E-1,-3.286606775E0,-2.821341779E0,1.529257393E-1,4.334182715E0
4.470195000E-1,-3.008901161E0,-2.199969281E0,-1.669222194E-1,3.731114319E0
4.569745000E-1,-2.943627816E0,-1.997564695E0,-9.524436021E-1,3.682710719E0
4.669295000E-1,-2.188880621E0,-1.152157299E0,-9.896459270E-1,2.664219187E0
4.768845000E-1,-1.506401212E0,6.093327883E-1,-1.415205697E0,2.154840649E0
4.868395000E-1,-1.316916926E0,1.006257574E0,-2.857814956E0,3.303623892E0
4.967945000E-1,-1.792502550E0,-1.149445653E-1,-3.657930404E0,4.075135885E0
5.067495000E-1,-1.971681703E0,-1.281915493E0,-3.180283636E0,3.955381154E0
5.167045000E-1,2.314936066E-1,-1.251391273E0,-1.635473235E0,2.072279448E0
5.266595000E-1,7.042085985E0,-5.576700068E-1,1.936860949E-1,7.066787471E0
5.366135000E-1,7.544861746E0,2.383734405E-1,1.664132193E0,7.729883351E0
5.465685000E-1,5.797339488E0,7.796507782E-1,3.164016683E0,6.650413674E0
5.565235000E-1,3.929471006E0,8.941603106E-1,2.664893092E0,4.831347663E0
5.664785000E-1,2.200155807E0,7.063272786E-1,1.529208276E0,2.770931568E0
5.764335000E-1,1.783993682E0,2.343859318E-1,7.487757254E-1,1.948906182E0
5.863885000E-1,1.538206556E0,-2.473246506E-1,-6.191815460E-1,1.676494760E0
5.963435000E-1,-2.874451454E0,-6.451057613E-2,-5.939481207E0,6.598793055E0
6.062985000E-1,-2.692855062E0,1.053295793E0,-2.623262086E0,3.904152198E0
6.162535000E-1,-2.960890258E0,2.814987025E-1,1.188844192E-1,2.976616560E0
6.262085000E-1,-3.812713219E0,-9.892693663E-1,2.034451563E0,4.433331606E0
6.361635000E-1,-4.918333406E0,-1.586461288E0,5.481879280E0,7.533781477E0
6.461175000E-1,-5.541260093E0,-2.539862664E0,6.968547893E0,9.258354363E0
6.560725000E-1,-5.423319415E0,-3.011160817E0,5.351117411E0,8.192309839E0
6.660275000E-1,-4.863726844E0,-2.957879234E0,3.566102221E0,6.717289143E0
6.759825000E-1,-4.807944406E0,-4.176536917E0,4.511281827E0,7.804579025E0
6.859375000E-1,-4.730686900E0,-6.212561381E0,5.384781586E0,9.485314448E0
6.958925000E-1,-5.088674492E0,-7.351977305E0,4.873548412E0,1.018320443E1
7.058475000E-1,-5.228515332E0,-7.511308084E0,2.747684403E0,9.555463950E0
7.158025000E-1,-4.568713764E0,-7.257509689E0,-3.987508714E-1,8.585079766E0
7.257575000E-1,-4.200086578E0,-7.435156871E0,-2.386635209E0,8.866696825E0
7.357125000E-1,-3.823589625E0,-8.049059551E0,-2.584947621E0,9.278423976E0
7.456675000E-1,-3.320648387E0,-8.084064492E0,-2.335920553E0,9.046288148E0
7.556225000E-1,-2.996332571E0,-7.208260930E0,-2.268080572E0,8.129035859E0
7.655765000E-1,-2.952252166E0,-5.954906162E0,-3.128718503E0,7.346126852E0
7.755315000E-1,-2.350095373E0,-5.980031063E0,-4.300784402E0,7.731782864E0
7.854865000E-1,-2.646163291E-1,-7.410569329E0,-4.178888667E0,8.511737195E0
7.954415000E-1,2.085080849E0,-8.424522132E0,-3.067475059E0,9.204864938E0
8.053965000E-1,3.489838741E0,-8.446784821E0,-2.977037636E0,9.611966570E0
8.153515000E-1,4.160055370E0,-7.880543380E0,-4.822143492E0,1.013223038E1
8.253065000E-1,3.721522967E0,-7.243184595E0,-6.805023490E0,1.061234192E1
8.352615000E-1,2.981425095E0,-6.489168595E0,-8.008274637E0,1.072989596E1
8.452161250E-1,2.550820931E0,-6.665904197E0,-8.479231020E0,1.108324523E1
8.551711250E-1,2.844163461E0,-7.815601864E0,-8.365990918E0,1.179672422E1
8.651261250E-1,3.801501183E0,-8.553577198E0,-8.972015644E0,1.296580730E1
8.750801250E-1,4.876560313E0,-8.595681244E0,-9.503093099E0,1.371041046E1
8.850351250E-1,5.669116480E0,-7.801811206E0,-1.055510952E1,1.429746400E1
8.949901250E-1,6.224932335E0,-6.378562664E0,-1.069878964E1,1.392479601E1
9.049451250E-1,6.307403803E0,-5.150583642E0,-9.846426984E0,1.277747937E1
9.149001250E-1,6.350200744E0,-4.223902287E0,-9.815902179E0,1.243054044E1
9.248551250E-1,6.842183130E0,-3.579580638E0,-9.466463801E0,1.221649722E1
9.348101250E-1,7.913555591E0,-2.839526035E0,-9.405144635E0,1.261522952E1
9.447651250E-1,1.003510143E1,-3.095004920E0,-9.520740581E0,1.417486569E1
9.547201250E-1,1.204487716E1,-3.807272385E0,-9.115406914E0,1.557770946E1
9.646751250E-1,1.366892727E1,-4.161338249E0,-8.222565150E0,1.648535370E1
9.746301250E-1,1.538118848E1,-4.081897978E0,-6.832225907E0,1.731826091E1
9.845851250E-1,1.686480017E1,-3.836037762E0,-5.241405519E0,1.807232698E1
9.945391250E-1,1.756343134E1,-3.097968873E0,-3.847758798E0,1.824491106E1
1.004494125E0,1.785997639E1,-2.025777803E0,-2.409859765E0,1.813532345E1
1.014449125E0,1.747064890E1,-7.156541723E-1,-1.109427017E0,1.752046124E1
1.024404125E0,1.661442941E1,8.450472075E-1,3.048095047E-2,1.663593396E1
1.034359125E0,1.552274840E1,1.742255087E0,6.134617996E-1,1.563225851E1
1.044314125E0,1.387856516E1,2.072511089E0,8.148387372E-1,1.405609602E1
1.054269125E0,1.236802236E1,2.021080735E0,1.614314500E0,1.263561458E1
1.064224125E0,1.117574819E1,1.674944279E0,2.572893586E0,1.158976132E1
1.074179125E0,1.003159661E1,1.535336743E0,3.270138969E0,1.066226985E1
1.084134125E0,9.163774497E0,1.547700096E0,3.789253605E0,1.003636296E1
1.094089125E0,8.058165420E0,1.565438794E0,4.210610397E0,9.225717775E0
1.104044125E0,7.062065921E0,1.480999737E0,4.592369844E0,8.553127854E0
1.113999125E0,6.674565092E0,9.428231782E-1,4.919197624E0,8.344893048E0
1.123953125E0,5.958994535E0,6.319009942E-1,5.400414117E0,8.066807756E0
1.133908125E0,5.142208675E0,6.924974442E-1,5.855448532E0,7.823563145E0
1.143863125E0,4.736963301E0,6.243042916E-1,5.113391842E0,6.998239300E0
1.153818125E0,4.218607341E0,4.842120212E-1,4.779031094E0,6.392984231E0
1.163773125E0,3.652116517E0,8.003750646E-1,4.433172382E0,5.799273460E0
1.173728125E0,2.962097123E0,1.216509708E0,3.704753737E0,4.896847506E0
1.183683125E0,2.852380261E0,9.870205271E-1,3.129562549E0,4.347924151E0
1.193638125E0,3.057218458E0,-1.725337923E-2,2.679356765E0,4.065198033E0
1.203593125E0,4.819356417E0,-1.664299423E0,2.913833621E0,5.872522049E0
1.213548125E0,5.836329891E0,-2.416832569E0,2.803986658E0,6.911307217E0
1.223503125E0,6.029793792E0,-1.894189138E0,3.128194885E0,7.052089683E0
1.233458125E0,5.977533717E0,-1.419649581E0,4.160900293E0,7.420202526E0
1.243412125E0,5.335537505E0,-6.907286614E-1,4.530506303E0,7.033530686E0
1.253367125E0,4.288968934E0,-6.230851471E-2,4.258893195E0,6.044609840E0
1.263322125E0,3.156893604E0,7.613758904E-1,3.821715007E0,5.015094822E0
1.273277125E0,1.680560822E0,2.217372349E0,3.462029969E0,4.441472314E0
1.283232125E0,1.636878321E-1,2.822406557E0,2.678765026E0,3.894682855E0
1.293187125E0,-1.213701144E0,2.224840997E0,2.403031386E0,3.492498787E0
1.303142125E0,-2.330773542E0,9.913398653E-1,2.401854342E0,3.490582231E0
1.313097125E0,-3.677165989E0,-7.166639864E-2,2.213725441E0,4.292699164E0
1.323052125E0,-5.184587540E0,-1.025498714E0,1.712459430E0,5.555547936E0
1.333007125E0,-5.963167108E0,-1.647702101E0,1.110476884E0,6.285494657E0
1.342962125E0,-5.930426209E0,-1.678726843E0,1.717341855E0,6.398229590E0
1.352917125E0,-5.064411471E0,-9.305832016E-1,1.969182603E0,5.512887516E0
1.362871125E0,-3.026418250E0,7.003683811E-1,2.672264677E0,4.097648325E0
1.372826125E0,-1.406260627E0,3.328436294E0,3.875252114E0,5.298456007E0
1.382781125E0,-1.021959980E0,5.359505242E0,5.092282809E0,7.463246133E0
1.392736125E0,-1.227520892E0,6.383910527E0,5.081638538E0,8.251313313E0
1.402691125E0,-1.788068606E0,7.782533521E0,4.734783459E0,9.283490279E0
1.412646125E0,-1.916214284E0,8.310431845E0,4.605257108E0,9.692447970E0
1.422601125E0,6.609028915E-1,8.346244286E0,1.518128387E0,8.508895352E0
1.432556125E0,8.244491040E0,-5.336827401E0,-8.417558098E-1,9.857074214E0
1.442511125E0,1.070668338E1,-2.222909311E1,-1.073283798E1,2.690649477E1
1.452466125E0,2.753700603E0,-1.048612407E1,-1.474282573E1,1.830007037E1
1.462421125E0,6.028955301E0,-8.663144664E0,-7.841457667E0,1.314864388E1
1.472376125E0,9.735640959E0,-8.345111096E-1,-6.367419040E0,1.166289582E1
1.482331125E0,8.996089801E0,1.741902500E0,-3.039501979E0,9.654140475E0
1.492285125E0,9.080820633E0,-1.184306753E0,-3.512411917E0,9.808206938E0
1.502240125E0,7.525278836E0,-2.194373496E0,-2.285319918E0,8.165034215E0
1.512195125E0,5.509994447E0,1.975288850E-1,4.393703091E-1,5.531012812E0
1.522150125E0,4.051156534E0,4.217745169E0,1.186897069E0,5.967408837E0
1.532105125E0,3.653319874E0,5.961366166E0,7.661828864E-1,7.033609947E0
1.542060125E0,2.335159830E0,1.760372100E0,-1.434452977E0,3.257228378E0
1.552015125E0,-2.141594773E0,-3.638162722E0,-2.955285702E0,5.153287275E0
1.561970125E0,-6.826178716E0,-7.605570463E0,-2.189434937E0,1.045155698E1
1.571925125E0,-8.814054283E0,-7.896220935E0,-1.072818477E0,1.188228923E1
1.581880125E0,-8.637730910E0,-6.153106892E0,-3.075992113E-1,1.060970014E1
1.591835125E0,-7.211809021E0,-4.015306962E0,6.748423612E-1,8.281804849E0
1.601789125E0,-5.215507032E0,-1.464166773E0,4.309339464E-2,5.417301448E0
1.611744125E0,-3.069793188E0,-2.680983460E-1,-2.467525005E-1,3.091341737E0
1.621699125E0,-1.362877503E0,8.362354535E-1,1.215082403E0,2.008270417E0
1.631654125E0,-8.322856593E-1,2.578395815E0,1.365424842E0,3.034008800E0
1.641609125E0,-2.041882789E-1,3.400061177E0,1.016877580E0,3.554736119E0
1.651564125E0,-1.978142291E-1,3.696269428E0,7.929099244E-1,3.785530914E0
1.661519125E0,-5.497797740E-1,3.828525259E0,-1.673718703E-1,3.871417932E0
1.671474125E0,-1.098028747E0,4.576988744E0,-2.358854502E-1,4.712762994E0
1.681429125E0,-1.717813141E0,6.034750476E0,5.310441256E-1,6.296912193E0
1.691384125E0,-1.570498974E0,6.809222960E0,1.166821239E0,7.084734022E0
1.701339125E0,-1.174449517E0,6.234825824E0,1.181493073E0,6.453550232E0
1.711294125E0,-8.572784132E-1,5.958326198E0,7.319231728E-1,6.064015905E0
1.721248125E0,-6.713778859E-1,6.224621263E0,7.641088790E-1,6.307180076E0
1.731203125E0,-3.350882877E-1,7.416683763E0,5.346980506E-1,7.443479308E0
1.741158125E0,3.587968469E-2,9.152439669E0,5.163910031E-2,9.152655672E0
1.751113125E0,-6.285562406E-1,9.188402969E0,2.408640620E-1,9.213025972E0
1.761068125E0,1.252999842E0,5.979171522E0,7.214551950E-1,6.151503743E0
1.771023125E0,6.515369384E0,-1.107964336E0,-1.148431161E-1,6.609902580E0
1.780978125E0,1.125998611E0,-3.144475873E0,-8.996409059E-1,3.459039627E0
1.790933125E0,-2.057521460E0,-3.811962436E0,1.167480659E0,4.486364147E0
1.800888125E0,-3.538983420E-1,-6.948312433E0,2.501396756E0,7.393326412E0
1.810843125E0,3.207667902E0,-1.054980142E1,1.433249620E0,1.111942660E1
1.820798125E0,1.449841826E0,-1.028959564E1,4.843681419E-1,1.040252048E1
1.830753125E0,-1.225714834E0,-7.675229512E0,1.135765507E0,7.855029485E0
1.840707125E0,-2.067398138E0,-4.700992400E0,1.485201985E0,5.345960114E0
1.850662125E0,-5.194697084E-1,-2.324064739E0,3.239721168E0,4.020810731E0
1.860617125E0,2.377783547E0,-4.491252190E-1,5.837295266E0,6.318986002E0
1.870572125E0,4.117405779E0,1.730226780E0,5.579048309E0,7.146502298E0
1.880527125E0,1.685744817E0,1.276670541E0,-3.820488846E0,4.366664434E0
1.890482125E0,-3.044251673E0,-2.568677158E0,-1.303195265E1,1.362708188E1
1.900437125E0,-2.148912271E0,-3.675810605E0,-2.131581416E0,4.761622295E0
1.910392125E0,5.205173832E-1,-8.462067103E-1,5.014973263E0,5.112432001E0
1.920347125E0,9.258316080E-1,3.649974682E0,2.774145977E0,4.677110780E0
1.930302125E0,1.103250018E0,5.816784988E0,1.004056390E0,6.005021019E0
1.940257125E0,1.004487330E0,6.878392598E0,4.989757291E-1,6.969236422E0
1.950212125E0,1.017840908E0,7.286044686E0,6.146628908E-1,7.382428987E0
1.960167125E0,9.666725090E-1,7.558496869E0,1.100983199E0,7.699187922E0
1.970121125E0,9.080116336E-1,7.493171775E0,1.672456289E0,7.731055453E0
1.980076125E0,5.454358774E-1,7.356168589E0,1.921050516E0,7.622411147E0
1.990031125E0,-1.345600004E-1,7.320727445E0,8.274470884E-1,7.368570106E0
1.999986125E0,-8.954821468E-1,7.063233025E0,-4.976834214E-1,7.137144935E0
2.009941125E0,-1.455283537E0,6.598785177E0,-1.211582406E0,6.865110918E0
2.019896125E0,-1.997198367E0,5.236334229E0,-1.727514841E0,5.864495290E0
2.029851125E0,-2.159114200E0,3.830425605E0,-1.381806402E0,4.609047990E0
2.039806125E0,-1.986211741E0,3.473003438E0,-1.485199792E0,4.267623271E0
2.049761125E0,-1.923160338E0,2.961288453E0,-1.523986713E0,3.845817272E0
2.059716125E0,-2.137911173E0,-3.069133329E0,-1.577826705E0,4.059529614E0
2.069671125E0,-2.270310262E0,-1.461756083E1,-1.807827517E0,1.490287333E1
2.079626125E0,-1.057072729E0,-2.268139629E1,-2.548801888E0,2.284862210E1
2.089581125E0,1.897858193E-1,-2.533452128E1,-1.749001604E0,2.539553098E1
2.099536125E0,1.694007079E-1,-1.705931832E1,-3.972101301E-1,1.706478286E1
2.109490125E0,2.644270620E-1,-6.517510049E0,5.211512214E-1,6.543657808E0
2.119445125E0,6.220029006E-1,-1.092906001E0,5.988958007E-1,1.392841454E0
2.129400125E0,1.988095129E0,1.748268948E0,2.382436323E-1,2.658143447E0
2.139355125E0,4.181804674E0,2.982531388E0,-2.063213432E-1,5.140578985E0
2.149310125E0,6.227603928E0,3.165303655E0,-4.539158428E-1,7.000588368E0
2.159265125E0,6.706117837E0,2.520901898E0,-8.553072437E-1,7.215158578E0
2.169220125E0,5.518015657E0,1.592068768E0,-1.242831534E0,5.876036928E0
2.179175125E0,3.880574834E0,6.763187832E-1,-1.009659777E0,4.066408859E0
2.189130125E0,2.654197950E0,-2.810136759E-1,-5.670758379E-1,2.728609618E0
2.199085125E0,1.714625239E0,-1.205774220E0,1.069373699E-1,2.098872740E0
2.209040125E0,9.308202332E-1,-1.838685029E0,7.019173086E-1,2.177125823E0
2.218995125E0,2.424943023E-1,-1.744868208E0,1.118044935E0,2.086478619E0
2.228950125E0,-3.965740261E-1,-1.199508344E0,1.561552150E0,2.008615529E0
2.238904125E0,-7.494434774E-1,-2.091508108E-1,1.741669196E0,1.907569442E0
2.248859125E0,-8.338823877E-1,1.000669683E0,1.669570103E0,2.117584468E0
2.258814125E0,-8.741643680E-1,1.985741917E0,1.634552298E0,2.716449065E0
2.268769125E0,-8.329363082E-1,2.172922985E0,1.541354697E0,2.791263423E0
2.278724125E0,-7.625606824E-1,9.420835054E-1,1.297539253E0,1.775564203E0
2.288679125E0,-8.984365256E-1,3.266815996E-1,1.105240703E0,1.461323396E0
2.298634125E0,-8.934780867E-1,-6.251258254E-2,6.239704156E-1,1.091581419E0
2.308589125E0,-9.215764430E-1,-3.935445106E-1,2.527728669E-1,1.033476920E0
2.318544125E0,-1.064720521E0,-6.701125485E-1,8.727795281E-2,1.261070203E0
2.328499125E0,-1.157926674E0,-7.141853517E-1,-1.322524698E-1,1.366874396E0
2.338454125E0,-1.165487489E0,-5.768137908E-1,-5.487601657E-1,1.411457741E0
2.348409125E0,-8.659860867E-1,-2.997358757E-1,-8.913203180E-1,1.278368259E0
2.358364125E0,-3.399503572E-1,-1.365324855E-3,-1.503731811E0,1.541680080E0
2.368319125E0,2.299581643E-1,1.965664333E-1,-2.135468645E0,2.156790545E0
2.378273125E0,8.066546819E-1,2.895143580E-1,-2.780227082E0,2.909325174E0
2.388228125E0,1.391900450E0,4.310263324E-1,-3.298481008E0,3.605987732E0
2.398183125E0,1.952986839E0,6.387784892E-1,-3.499565292E0,4.058220396E0
2.408138125E0,2.276188029E0,8.041675687E-1,-3.010415590E0,3.858797669E0
2.418093125E0,2.169932719E0,8.742552191E-1,-2.008740917E0,3.083499678E0
2.428048125E0,1.972890030E0,7.826235026E-1,-8.577841973E-1,2.289233135E0
2.438003125E0,1.898968360E0,7.063173383E-1,-2.936954096E-2,2.026284182E0
2.447958125E0,2.021525123E0,6.241914403E-1,4.271772565E-1,2.158392732E0
2.457913125E0,2.294935957E0,4.593175006E-1,6.161807549E-1,2.420202953E0
2.467868125E0,2.613605702E0,2.543532962E-1,6.665697205E-1,2.709233389E0
2.477823125E0,2.865064334E0,5.288514197E-2,6.458812483E-1,2.937439882E0
2.487778125E0,3.015792397E0,-8.712643683E-2,6.472601679E-1,3.085699357E0
2.497733125E0,3.080009151E0,-1.279487729E-1,6.660740228E-1,3.153804347E0
2.507688125E0,3.142725509E0,-9.381097376E-2,6.535984035E-1,3.211341619E0
2.517642125E0,3.116094072E0,-2.089560986E-1,6.834063394E-1,3.196990639E0
2.527597125E0,3.003767890E0,-5.743462658E-1,7.188670711E-1,3.141538642E0
2.537552125E0,2.833325062E0,-1.105702633E0,7.647770695E-1,3.136111157E0
2.547507125E0,2.615350803E0,-1.702575881E0,5.911874163E-1,3.176212684E0
2.557462125E0,2.449122356E0,-2.328118613E0,2.690210366E-1,3.389794818E0
2.567417125E0,2.261258918E0,-3.004796416E0,2.603180408E-3,3.760598379E0
2.577372125E0,2.076470970E0,-3.523301772E0,-1.015836775E-1,4.090929761E0
2.587327125E0,1.840325611E0,-3.784600391E0,3.212811112E-2,4.208447539E0
2.597282125E0,1.578466683E0,-3.502750563E0,5.599378493E-1,3.882569893E0
2.607237125E0,1.381305588E0,-2.572694780E0,1.389624714E0,3.233855347E0
2.617192125E0,1.577546039E0,-9.764259571E-1,1.913367713E0,2.665151996E0
2.627147125E0,1.814305940E0,7.065085423E-1,1.662828556E0,2.560441206E0
2.637102125E0,1.737264196E0,2.020094894E0,8.904819734E-1,2.809239828E0
2.647057125E0,1.406436043E0,3.101347395E0,-3.316643044E-2,3.405512886E0
2.657011125E0,8.467746942E-1,4.071928475E0,-7.885601807E-1,4.233137849E0
2.666966125E0,1.116674202E-1,4.836814449E0,-1.187749593E0,4.981766024E0
2.676921125E0,-4.642554011E-1,5.406126847E0,-1.521699136E0,5.635362350E0
2.686876125E0,-7.898241294E-1,5.871841201E0,-1.901128614E0,6.222268980E0
2.696831125E0,-1.005158444E0,6.266461015E0,-2.328276050E0,6.760158764E0
2.706786125E0,-1.448363503E0,6.467188911E0,-2.835728853E0,7.208581510E0
2.716741125E0,-2.079959711E0,6.581691427E0,-3.410621248E0,7.699170848E0
2.726696125E0,-2.448944601E0,7.047322167E0,-3.548324639E0,8.261518451E0
2.736651125E0,-2.692642808E0,6.898551459E0,-3.090121618E0,8.024287453E0
2.746606125E0,-2.974591161E0,6.018315707E0,-2.946760461E0,7.331556025E0
2.756561125E0,-3.487315668E0,5.044920947E0,-2.838876994E0,6.758092964E0
2.766516125E0,-4.158203265E0,3.620307664E0,-2.619783870E0,6.104141995E0
2.776471125E0,-4.707754705E0,2.632766150E0,-2.518023899E0,5.952718397E0
2.786426125E0,-5.094510013E0,2.211212307E0,-2.301975127E0,6.011870061E0
2.796381125E0,-5.110039049E0,1.944552961E0,-1.604483576E0,5.698083261E0
2.806336125E0,-5.080027045E0,1.665117449E0,1.098972487E-1,5.347089704E0
2.816290125E0,-5.386218247E0,9.981992340E-1,3.682375566E0,6.600578651E0
2.826245125E0,-4.775289169E0,8.041722465E-1,4.038920943E0,6.305787978E0
2.836200125E0,-3.686160469E0,1.085356661E0,3.233978033E0,5.022389073E0
2.846155125E0,-3.150624804E0,1.138598483E0,2.701841355E0,4.303811087E0
2.856109917E0,-2.701736690E0,1.004882017E0,2.243807903E0,3.652922517E0
2.866064917E0,-2.224611202E0,8.267752433E-1,1.673218181E0,2.903809805E0
2.876019917E0,-2.018253021E0,3.586559290E-1,5.793178609E-1,2.130161618E0
2.885974917E0,-1.920023160E0,-4.462273389E-1,-8.618714011E-1,2.151378648E0
2.895929917E0,-1.529844161E0,-1.706630926E0,-2.177467149E0,3.161388217E0
2.905884917E0,-6.664855206E-1,-3.098008050E0,-2.968930472E0,4.342396225E0
2.915839917E0,7.461935949E-1,-4.523473856E0,-2.844094172E0,5.395135982E0
2.925794917E0,2.163062533E0,-6.129403449E0,-2.749678888E0,7.057560496E0
2.935749917E0,3.071197397E0,-7.635978908E0,-3.303622757E0,8.868728807E0
2.945704917E0,3.187510210E0,-8.639511387E0,-3.912116470E0,1.000530028E1
2.955659917E0,1.604691153E0,-8.250834684E0,-3.532647961E0,9.117615274E0
2.965613917E0,1.117744242E-1,-7.017147025E0,-2.809570749E0,7.559532637E0
2.975568917E0,-4.245584348E-1,-6.689822817E0,-2.137696434E0,7.035888375E0
2.985523917E0,-6.485557647E-1,-7.238861749E0,-1.480210656E0,7.417059227E0
2.995478917E0,-6.400663385E-1,-8.024168538E0,-9.651203656E-1,8.107306764E0
3.005433917E0,-2.920807010E-1,-8.589662704E0,-8.187657273E-1,8.633538894E0
3.015388917E0,4.412703618E-1,-8.417449340E0,-1.038059703E0,8.492687494E0
3.025343917E0,1.210698818E0,-7.616136382E0,-1.708232478E0,7.898695032E0
3.035298917E0,1.446491809E0,-6.920882560E0,-2.417247429E0,7.472217817E0
3.045253917E0,1.241786929E0,-6.389299321E0,-2.530993315E0,6.983631416E0
3.055208917E0,9.740956955E-1,-5.881184467E0,-2.318868903E0,6.396432298E0
3.065163917E0,8.325102655E-1,-5.533823020E0,-2.192733059E0,6.010353469E0
3.075118917E0,8.231179561E-1,-5.316676726E0,-2.024565968E0,5.748342538E0
3.085073917E0,8.217357474E-1,-5.046532440E0,-1.770789499E0,5.410955068E0
3.095028917E0,7.259701225E-1,-4.573052398E0,-1.533188184E0,4.877551318E0
3.104983917E0,5.101463961E-1,-3.844551893E0,-1.321170191E0,4.097111089E0
3.114938917E0,2.013939676E-1,-2.884549595E0,-1.110403794E0,3.097447737E0
3.124892917E0,-1.383650760E-1,-1.733094254E0,-9.100194213E-1,1.962369979E0
3.134847917E0,-4.336964634E-1,-4.684450042E-1,-7.254826109E-1,9.663634736E-1
3.144802917E0,-6.965375047E-1,8.426194435E-1,-5.506929629E-1,1.224105699E0
3.154757917E0,-9.359678295E-1,2.137599955E0,-3.723294966E-1,2.363048582E0
3.164712917E0,-1.177345789E0,3.334808004E0,-2.019955730E-1,3.542300064E0
3.174667917E0,-1.355633680E0,4.506228663E0,-3.635579422E-2,4.705864552E0
3.184622917E0,-1.446399862E0,5.667238355E0,1.254661913E-1,5.850248276E0
3.194577917E0,-1.421261366E0,6.668954689E0,1.783353996E-1,6.821051534E0
3.204532917E0,-1.323839152E0,7.541633499E0,2.439119963E-1,7.660827566E0
3.214487917E0,-1.168720999E0,8.276174178E0,2.713038627E-1,8.362689375E0
3.224442917E0,-9.892432000E-1,8.868503555E0,2.729292425E-1,8.927678746E0
3.234397917E0,-8.461116200E-1,9.313191907E0,5.088024867E-1,9.365379241E0
3.244352917E0,-8.485314171E-1,9.651408309E0,1.125034697E0,9.753737283E0
3.254307917E0,-9.032738540E-1,9.854085667E0,1.419401075E0,9.996679819E0
3.264262917E0,-7.781964295E-1,1.004614448E1,1.327549503E0,1.016331621E1
3.274217917E0,-5.931258779E-1,1.003973126E1,1.118392260E0,1.011922938E1
3.284171917E0,-4.642402349E-1,1.000372527E1,9.532540262E-1,1.005975803E1
3.294126917E0,-3.688204363E-1,9.889007578E0,7.335133231E-1,9.923030847E0
3.304081917E0,-4.691693281E-1,9.533768762E0,5.807162225E-1,9.562954459E0
3.314036917E0,-7.623979837E-1,8.671187509E0,5.777399898E-1,8.723790861E0
3.323991917E0,-9.812325876E-1,6.934728182E0,7.481804788E-1,7.043652914E0
3.333946917E0,-8.920817716E-1,3.247424290E0,1.050793769E0,3.527852315E0
3.343901917E0,-1.294661254E-1,-2.722476472E0,-2.225683252E-2,2.725643957E0
3.353856917E0,1.131324839E0,-1.024880196E1,-3.039130096E0,1.074961159E1
3.363811917E0,1.761938861E0,-1.655133445E1,-5.652955946E0,1.757859526E1
3.373766917E0,1.308115405E0,-1.819553173E1,-5.864681286E0,1.916202044E1
3.383721917E0,4.216101956E-1,-1.367635441E1,-4.217455148E0,1.431807784E1
3.393676917E0,4.069350364E-1,-6.330597954E0,-1.671319005E0,6.560135196E0
3.403631917E0,4.731733186E-1,-1.600184703E0,-6.221547090E-2,1.669836770E0
3.413586917E0,3.875764038E-1,1.187133297E0,1.361533520E0,1.847504928E0
3.423541917E0,-1.664917912E-2,3.650326685E0,5.570217844E0,6.659766432E0
3.433496917E0,-5.203716048E-1,5.689637868E0,7.417787132E0,9.363030045E0
3.443451917E0,-6.283566313E-1,6.893562614E0,6.144105688E0,9.255596809E0
3.453406917E0,-5.004957859E-1,7.659273630E0,5.348038852E0,9.355024754E0
3.463360917E0,-4.548475600E-1,8.250225989E0,4.956532681E0,9.635368773E0
3.473315917E0,-2.176854799E-1,8.468659839E0,4.614479044E0,9.646709454E0
3.483270917E0,4.528541346E-1,8.105228489E0,4.101456037E0,9.095149661E0
3.493225917E0,1.489061878E0,7.221382082E0,3.008802635E0,7.963576945E0
3.503180917E0,2.768604864E0,6.550108861E0,1.064158165E0,7.190377708E0
3.513135917E0,3.065478527E0,5.706018843E0,-1.355863768E0,6.617716842E0
3.523090917E0,2.833571230E0,4.859384117E0,-3.674041530E0,6.718729126E0
3.533045917E0,2.149689658E0,3.711382726E0,-4.673169886E0,6.343031148E0
3.543000917E0,1.466487825E0,2.533119655E0,-3.744308982E0,4.752592080E0
3.552955917E0,1.201157917E0,1.114592155E0,-2.580909534E0,3.057153910E0
3.562910917E0,1.249996566E0,-1.497141561E0,-1.999486090E0,2.793182574E0
3.572865917E0,1.464390575E0,-5.767592947E0,-1.943684649E0,6.259990270E0
3.582820917E0,1.547623351E0,-1.061064053E1,-1.697599901E0,1.085645780E1
3.592775917E0,1.254655335E0,-1.395606415E1,-4.548179220E-1,1.401972703E1
3.602730917E0,5.104610859E-1,-1.438863649E1,2.107033928E-1,1.439923006E1
3.612685917E0,-6.349663239E-1,-1.178368788E1,-1.431466073E0,1.188728638E1
3.622640917E0,-1.534024774E0,-8.764635370E0,-3.836599972E0,9.689765969E0
3.632594917E0,-1.991930172E0,-7.477379615E0,-5.589787306E0,9.545926558E0
3.642549917E0,-2.441998985E0,-7.538336254E0,-6.570743685E0,1.029390815E1
3.652504917E0,-2.915464994E0,-8.017327881E0,-6.639514543E0,1.081020980E1
3.662459917E0,-3.192739668E0,-8.118057865E0,-5.333206805E0,1.022445817E1
3.672414917E0,-3.122096239E0,-8.177056856E0,-3.290782271E0,9.350988809E0
3.682369917E0,-2.728161427E0,-8.421535374E0,-1.763128477E0,9.026280787E0
3.692324917E0,-2.117200628E0,-8.520267949E0,-9.758666709E-1,8.833448940E0
3.702279917E0,-1.384508692E0,-8.249377558E0,-7.971184579E-1,8.402647930E0
3.712234917E0,-7.034866282E-1,-7.655534921E0,-7.788266131E-1,7.727139138E0
3.722189917E0,-2.301980463E-1,-6.770969891E0,-5.106306186E-1,6.794098029E0
3.732144917E0,2.550442178E-2,-5.617617713E0,-6.767479688E-2,5.618083225E0
3.742099917E0,1.411926067E-1,-4.185586653E0,5.610590529E-1,4.225382615E0
3.752054917E0,3.483122045E-1,-2.554290084E0,2.206301816E0,3.393152948E0
3.762009917E0,3.034272595E-1,-7.765792358E-1,3.665207556E0,3.758841556E0
3.771964917E0,-2.677328950E-1,9.535095495E-1,3.978104345E0,4.099533576E0
3.781919917E0,-1.002598825E0,2.414867905E0,3.755628022E0,4.576192002E0
3.791874917E0,-1.540296351E0,3.786501905E0,3.349103862E0,5.284563010E0
3.801829917E0,-1.806405036E0,5.176261690E0,2.997443542E0,6.248315935E0
3.811784917E0,-1.855510245E0,6.428745807E0,2.659465999E0,7.200309044E0
3.821738917E0,-1.724988551E0,7.531454666E0,2.230758087E0,8.042056735E0
3.831693917E0,-1.665802888E0,8.545840747E0,2.100767467E0,8.956534893E0
3.841648917E0,-1.614770875E0,9.226285325E0,2.023951864E0,9.582703535E0
3.851604125E0,-1.515248926E0,9.643017554E0,1.874588248E0,9.939710658E0
3.861559125E0,-1.399019435E0,9.942399673E0,1.736299113E0,1.018937198E1
3.871514125E0,-1.264474126E0,1.011937033E1,1.617079210E0,1.032547800E1
3.881469125E0,-1.150850154E0,1.017037092E1,1.584748785E0,1.035723561E1
3.891424125E0,-1.080116825E0,1.015639139E1,1.601157388E0,1.033840624E1
3.901379125E0,-1.017997029E0,1.012230096E1,1.514383100E0,1.028545822E1
3.911334125E0,-8.772063088E-1,1.008700599E1,1.413082573E0,1.022320807E1
3.921289125E0,-7.553437565E-1,9.973025050E0,1.143427772E0,1.006673730E1
3.931244125E0,-5.928642516E-1,9.651122380E0,8.019584906E-1,9.702514552E0
3.941199125E0,-3.808066437E-1,9.035407063E0,3.759945314E-1,9.051241152E0
3.951154125E0,8.288004264E-2,7.459842646E0,-2.158933083E-1,7.463426246E0
3.961109125E0,1.129781394E0,2.367985514E0,-1.657969812E0,3.103647095E0
3.971064125E0,3.039144714E0,-7.169971023E0,-5.145443355E0,9.333834817E0
3.981019125E0,4.229509475E0,-1.964283455E1,-8.139921774E0,2.167920722E1
3.990974125E0,3.209160111E0,-2.599795572E1,-7.841205068E0,2.734368130E1
4.000929125E0,6.793279065E-1,-2.353440682E1,-4.079639783E0,2.389504659E1
4.010883125E0,-4.129042031E-1,-1.467568332E1,-6.932235952E-1,1.469784779E1
4.020838125E0,6.804799542E-2,-5.555699793E0,5.997147617E0,8.175341599E0
4.030793125E0,-6.290800050E-3,-1.189136553E-1,9.338301605E0,9.339060815E0
4.040748125E0,-2.733932190E-1,2.593346561E0,6.450209182E0,6.957398129E0
4.050703125E0,-6.840458786E-1,4.589248016E0,5.869160253E0,7.481721606E0
4.060658125E0,-1.153164482E0,6.392305375E0,5.953068967E0,8.810810771E0
4.070613125E0,-1.550584527E0,7.766895728E0,6.171565382E0,1.004077691E1
4.080568125E0,-1.705586467E0,8.582561261E0,6.275871524E0,1.076828428E1
4.090523125E0,-1.334505058E0,8.324470425E0,5.752101334E0,1.020609530E1
4.100478125E0,-8.108670160E-1,7.214144983E0,5.380033647E0,9.035826205E0
4.110433125E0,-4.661671483E-1,6.211722890E0,5.357053505E0,8.215889199E0
4.120388125E0,-4.257919780E-1,5.278571007E0,4.853132858E0,7.183140624E0
4.130343125E0,-5.442747300E-1,4.763203851E0,4.347059560E0,6.471574207E0
4.140298125E0,1.491737272E-1,5.954542465E0,3.879487252E0,7.108392934E0
4.150253125E0,1.160286756E0,7.631274823E0,1.688148462E0,7.901421771E0
4.160208125E0,2.330144674E0,9.802219695E0,-1.157590824E0,1.014165182E1
4.170163125E0,3.163870210E0,1.025716465E1,-3.200843324E0,1.120111152E1
4.180118125E0,2.749705786E0,8.912253592E0,-3.577885530E0,9.989515046E0
4.190073125E0,2.670885319E0,8.238785326E0,-4.814770446E0,9.909249542E0
4.200028125E0,3.424597556E0,7.999189818E0,-5.894136050E0,1.050979286E1
4.209982125E0,4.317278521E0,6.883685498E0,-6.225253347E0,1.023610273E1
4.219937125E0,4.108434981E0,3.632859882E0,-5.096001638E0,7.486397105E0
4.229892125E0,2.695548874E0,-9.270760417E-2,-3.875880397E0,4.721972817E0
4.239847125E0,1.506359112E0,-4.492441514E0,-3.562845322E0,5.928323145E0
4.249802125E0,3.304905124E-1,-1.027222474E1,-3.269415961E0,1.078503156E1
4.259757125E0,-1.107112250E0,-1.552160703E1,-2.303956749E0,1.573067700E1
4.269712125E0,-2.987850600E0,-1.847253071E1,-2.260340613E-1,1.871397161E1
4.279667125E0,-5.231902040E0,-1.790492277E1,6.552395707E-1,1.866516534E1
4.289622125E0,-6.795248700E0,-1.366654044E1,-2.797488647E0,1.551694800E1
4.299577125E0,-7.352445667E0,-9.727256051E0,-7.694612448E0,1.441821862E1
4.309532125E0,-7.027837490E0,-8.006263779E0,-9.781394252E0,1.446258735E1
4.319487125E0,-5.151664208E0,-8.114550705E0,-9.253801737E0,1.334235451E1
4.329442125E0,-2.750784889E0,-9.209696774E0,-8.407214373E0,1.276975277E1
4.339397125E0,-9.581767239E-1,-1.088561052E1,-7.545105575E0,1.327942910E1
4.349352125E0,5.801361422E-1,-1.258682634E1,-6.426021590E0,1.414420407E1
4.359307125E0,2.204808437E0,-1.303000085E1,-5.454993782E0,1.429681991E1
4.369262125E0,3.972063879E0,-1.179569572E1,-3.581464026E0,1.295154870E1
4.379217125E0,5.321590726E0,-9.714037251E0,-1.296487924E0,1.115180382E1
4.389172125E0,5.237509519E0,-7.723327539E0,-6.761313799E-1,9.356198367E0
4.399127125E0,3.705277356E0,-6.276509455E0,-1.002563596E0,7.357226718E0
4.409082125E0,2.122040661E0,-5.426261734E0,-1.384295854E0,5.988626552E0
4.419037125E0,8.280885279E-1,-4.584515280E0,-1.302964008E0,4.837481386E0
4.428992125E0,-2.161132550E-1,-3.636082283E0,-1.146607414E0,3.818704999E0
4.438946125E0,-8.823490081E-1,-2.521909958E0,-1.080679473E0,2.882089126E0
4.448901125E0,-1.348255371E0,-1.319970927E0,-9.603785661E-1,2.117178023E0
4.458856125E0,-1.660477098E0,-5.530998230E-2,-7.434725931E-1,1.820163423E0
4.468811125E0,-1.815663517E0,1.360129604E0,-5.136239545E-1,2.326025820E0
4.478766125E0,-1.754166596E0,2.751803766E0,-3.459339957E-1,3.281645128E0
4.488721125E0,-1.533162456E0,4.100845880E0,-3.139633209E-2,4.378185672E0
4.498676125E0,-1.481745404E0,5.629647190E0,1.003100224E0,5.907174196E0
4.508631125E0,-1.409128832E0,7.040174530E0,1.684331545E0,7.374732147E0
4.518586125E0,-1.340944012E0,8.140201855E0,1.902865237E0,8.466517182E0
4.528541125E0,-1.264307042E0,8.869449635E0,1.933609897E0,9.165394500E0
4.538496125E0,-1.149218269E0,9.349729403E0,1.906727908E0,9.611126566E0
4.548451125E0,-1.035092826E0,9.780411335E0,1.718742409E0,9.984084260E0
4.558406125E0,-9.359274837E-1,1.003523241E1,1.397891507E0,1.017526169E1
4.568361125E0,-8.574137031E-1,1.006266754E1,1.195310189E0,1.016962157E1
4.578316125E0,-8.620897946E-1,1.001326091E1,1.080786477E0,1.010824872E1
4.588271125E0,-8.735580117E-1,9.968873527E0,1.037998965E0,1.006076463E1
4.598226125E0,-8.793736524E-1,1.000822529E1,1.159880594E0,1.011351543E1
4.608181125E0,-8.941991946E-1,1.005650458E1,1.284542062E0,1.017756969E1
4.618136125E0,-9.934068561E-1,1.014583834E1,1.447408068E0,1.029659569E1
4.628091125E0,-1.025588104E0,1.024176542E1,1.575013025E0,1.041279290E1
4.638046125E0,-1.005257700E0,1.029501952E1,1.757597011E0,1.049224081E1
4.648001125E0,-9.845312212E-1,1.025679510E1,2.025439249E0,1.050112145E1
4.657955125E0,-1.033341731E0,1.005830552E1,1.980225070E0,1.030332938E1
4.667910125E0,-9.239812566E-1,1.001274986E1,1.376578406E0,1.014908219E1
4.677865125E0,-4.454612075E-1,9.694386513E0,7.583417702E-1,9.734199905E0
4.687820125E0,3.089355925E-1,9.262853227E0,8.759129047E-3,9.268007760E0
4.697775125E0,1.399913621E0,9.206522321E0,-1.166625503E-1,9.313077984E0
4.707730125E0,2.375843880E0,8.063869963E0,-3.647352425E-1,8.414491353E0
4.717685125E0,3.277863725E0,-1.802454511E0,-1.388933573E0,3.990284368E0
4.727640125E0,5.277524355E0,-1.839378625E1,-3.704855479E0,1.949126959E1
4.737595125E0,5.037309042E0,-3.200005944E1,-6.537272469E0,3.304715143E1
4.747550125E0,1.976726680E0,-3.205838892E1,-5.393005110E0,3.256888474E1
4.757505125E0,-4.754409785E-1,-2.112768584E1,-2.230383866E-1,2.113421159E1
4.767460125E0,-2.654138893E0,-9.576535882E0,6.933621304E0,1.211732632E1
4.777415125E0,-2.628265548E0,-2.266531060E0,5.610655434E0,6.597302269E0
4.787370125E0,-2.491206813E0,1.638331354E0,3.587162430E0,4.664544491E0
4.797325125E0,-2.783308857E0,3.661224141E0,3.365160316E0,5.698743226E0
4.807280125E0,-2.790781598E0,5.225501093E0,3.391471617E0,6.826155824E0
4.817235125E0,-2.324240886E0,6.586845748E0,3.588304684E0,7.852678722E0
4.827190125E0,-9.322476847E-1,7.162752051E0,4.325555547E0,8.419295308E0
4.837145125E0,5.849102110E-1,6.585437154E0,5.266808748E0,8.452773323E0
4.847100125E0,1.341733386E0,5.488859686E0,6.100844479E0,8.315535610E0
4.857059250E0,1.846636072E0,4.724384186E0,7.429217269E0,8.995728984E0
4.867014250E0,2.086170185E0,4.551514179E0,8.897250221E0,1.020928249E1
4.876969250E0,6.674813745E-1,4.870956341E0,9.467578865E0,1.066802684E1
4.886923250E0,-7.384502734E-1,5.487570375E0,8.216420896E0,9.907992217E0
4.896878250E0,-1.291662802E0,5.873051575E0,4.949500235E0,7.788368261E0
4.906833250E0,-1.137147935E0,5.924963740E0,1.285435809E0,6.168520566E0
4.916788250E0,-2.896831964E-1,5.439760031E0,-1.889857521E0,5.765974939E0
4.926743250E0,2.645549881E-1,4.124303155E0,-4.251720124E0,5.929333003E0
4.936698250E0,2.175244987E-1,1.919101201E0,-6.186465257E0,6.480942733E0
4.946653250E0,-8.506083481E-2,-1.097239373E0,-7.855175235E0,7.931894324E0
4.956608250E0,-6.027864649E-1,-3.982343869E0,-8.510697227E0,9.415645570E0
4.966563250E0,-1.103153393E0,-6.670152199E0,-8.080261463E0,1.053558271E1
4.976518250E0,-1.467790585E0,-1.044355634E1,-7.136703290E0,1.273400220E1
4.986473250E0,-1.795070355E0,-1.400054275E1,-6.268737921E0,1.544456377E1
4.996428250E0,-1.467543686E0,-1.476839093E1,-4.577733679E0,1.553108820E1
5.006383250E0,2.801442132E-2,-1.255641029E1,-3.155117805E0,1.294677538E1
5.016338250E0,2.130363003E0,-1.026981568E1,-3.023279464E0,1.091548347E1
5.026293250E0,3.563354907E0,-9.201754501E0,-3.047976641E0,1.032763021E1
5.036248250E0,4.325148873E0,-8.561432932E0,-2.474724974E0,9.906023941E0
5.046203250E0,4.650217811E0,-8.333988522E0,-1.649735471E0,9.685118352E0
5.056158250E0,4.678934948E0,-8.654010728E0,-1.001637397E0,9.888761874E0
5.066113250E0,4.301045481E0,-9.110398774E0,-5.279310679E-1,1.008846218E1
5.076068250E0,3.416470511E0,-9.312043514E0,-3.829762530E-1,9.926383831E0
5.086023250E0,2.274336947E0,-9.022362510E0,-4.937880063E-1,9.317696089E0
5.095978250E0,1.198193817E0,-8.271936116E0,-7.639691305E-1,8.393106955E0
5.105933250E0,2.558920275E-1,-7.079767197E0,-9.315146631E-1,7.145369400E0
5.115888250E0,-4.940971778E-1,-5.535629809E0,-8.351005089E-1,5.620028672E0
5.125843250E0,-1.141830459E0,-3.882811394E0,-2.701998353E-1,4.056230895E0
5.135797250E0,-1.973477236E0,-2.314752463E0,7.307163075E-1,3.128360224E0
5.145752250E0,-2.492521560E0,-7.851915997E-1,7.779074308E-1,2.726596697E0
5.155707250E0,-2.686808749E0,6.684355670E-1,5.641086683E-1,2.825591256E0
5.165662250E0,-2.718551236E0,2.021353215E0,4.504180384E-1,3.417494119E0
5.175617250E0,-2.632370878E0,3.352168388E0,4.235860428E-1,4.283203763E0
5.185572250E0,-2.497586418E0,4.714562033E0,4.904059768E-1,5.357754297E0
5.195527250E0,-2.335755223E0,5.995101677E0,6.363302600E-1,6.465439875E0
5.205482250E0,-2.172708685E0,7.133891948E0,7.565069139E-1,7.495690767E0
5.215437250E0,-2.000901847E0,8.127375403E0,8.942579591E-1,8.417691871E0
5.225392250E0,-1.802175306E0,8.972108615E0,9.877901669E-1,9.204471644E0
5.235347250E0,-1.680081935E0,9.508733323E0,1.055286770E0,9.713511975E0
5.245302250E0,-1.513761979E0,9.767991849E0,9.626469934E-1,9.931355865E0
5.255257250E0,-1.391555464E0,9.920355670E0,7.870000704E-1,1.004834575E1
5.265212250E0,-1.287996890E0,1.003165157E1,5.918913480E-1,1.013130321E1
5.275167250E0,-1.216127008E0,1.005667064E1,4.497222197E-1,1.013991318E1
5.285122250E0,-1.184937740E0,1.005901186E1,3.515112162E-1,1.013466118E1
5.295077250E0,-1.238673871E0,9.604706013E0,1.267547715E-1,9.685079108E0
5.305032250E0,-1.229007839E0,8.715821060E0,-1.678794086E-1,8.803645865E0
5.314987250E0,-1.221094291E0,7.414315640E0,-3.020051801E-1,7.520262948E0
5.324942250E0,-1.265762852E0,5.285119303E0,-5.659011322E-1,5.463962458E0
5.334897250E0,-1.122758011E0,1.556025361E0,-1.245490263E0,2.287585293E0
5.344852250E0,-1.008133946E0,-3.806052656E0,-3.322974409E0,5.152138371E0
5.354807250E0,-1.188259178E0,-1.013510519E1,-5.933176739E0,1.180402064E1
5.364762250E0,-1.702846754E0,-1.475101066E1,-7.076473460E0,1.644896590E1
5.374716250E0,-2.294847079E0,-1.418394184E1,-6.333941392E0,1.570252664E1
5.384671250E0,-1.991239470E0,-7.602623466E0,-3.726222374E0,8.697680805E0
5.394626250E0,-1.272334392E0,-2.012143850E0,-1.573256521E0,2.853540566E0
5.404581250E0,-8.923709165E-1,9.319689918E-1,-3.357236974E-1,1.333267586E0
5.414536250E0,-6.440129167E-1,2.777235062E0,4.389224855E-1,2.884517320E0
5.424491250E0,-5.045882522E-1,3.934675028E0,1.114178830E0,4.120396988E0
5.434446250E0,-3.818033016E-1,4.726864575E0,1.439547364E0,4.955937760E0
5.444401250E0,-3.320476625E-1,5.331285995E0,1.598647470E0,5.575709797E0
5.454356250E0,-3.012822450E-1,5.654100246E0,1.699701390E0,5.911734551E0
5.464311250E0,-2.808291232E-1,5.659859753E0,1.775087203E0,5.938334110E0
5.474266250E0,-3.106722155E-1,5.304520365E0,1.939595107E0,5.656543353E0
5.484221250E0,-3.235738776E-1,4.737707652E0,2.094035129E0,5.189947685E0
5.494176250E0,-2.433975875E-1,4.309169894E0,2.179330072E0,4.835045721E0
5.504131250E0,-2.303028211E-2,3.979365297E0,2.438888851E0,4.667339434E0
5.514086250E0,3.542719790E-1,3.659381098E0,3.308104355E0,4.945718662E0
5.524041250E0,6.882968044E-1,3.435459636E0,3.963405614E0,5.290058550E0
5.533996250E0,5.510365599E-1,3.328868988E0,3.998842080E0,5.232183866E0
5.543951250E0,-5.723912492E-2,3.346789534E0,3.637025439E0,4.942896979E0
5.553906250E0,-3.126026738E-1,3.602694681E0,2.979294077E0,4.685437290E0
5.563861250E0,-3.413377553E-1,3.825619193E0,2.113531061E0,4.383935130E0
5.573816250E0,-3.866527630E-1,3.952486231E0,1.223993267E0,4.155695764E0
5.583771250E0,-4.030265382E-1,3.994186819E0,2.708883449E-1,4.023597797E0
5.593726250E0,-4.608119758E-1,3.712254546E0,-7.392435944E-1,3.813090948E0
5.603680250E0,-4.529709327E-1,2.858133044E0,-1.598187879E0,3.305799701E0
5.613635250E0,-7.236102046E-2,1.324715942E0,-2.220845303E0,2.586940723E0
5.623590250E0,5.461206595E-1,-1.048556625E0,-2.914582357E0,3.145235934E0
5.633545250E0,8.434626120E-1,-4.552823955E0,-3.422842222E0,5.758079890E0
5.643500250E0,8.200272641E-1,-9.234424065E0,-3.726065961E0,9.991526413E0
5.653455250E0,6.874507854E-1,-1.409503376E1,-3.267148118E0,1.448505513E1
5.663410250E0,7.825119670E-1,-1.712767695E1,-1.518695860E0,1.721267207E1
5.673365250E0,1.826039694E0,-1.630235065E1,1.141078287E-1,1.640469684E1
5.683320250E0,3.365292463E0,-1.290352557E1,-5.637584201E-1,1.334705920E1
5.693275250E0,3.147667868E0,-1.070274938E1,-2.565566440E0,1.144721750E1
5.703230250E0,1.897538716E0,-1.025081457E1,-4.099052247E0,1.120187850E1
5.713185250E0,1.243042911E0,-9.949383588E0,-4.797371471E0,1.111531207E1
5.723140250E0,1.077833560E0,-9.410001333E0,-4.696367545E0,1.057193068E1
5.733095250E0,9.135501163E-1,-9.260255309E0,-3.861136643E0,1.007448651E1
5.743050250E0,7.580599344E-1,-9.163896704E0,-2.410456181E0,9.505890629E0
5.753005250E0,7.700978165E-1,-8.691261585E0,-1.352106347E0,8.829454692E0
5.762960250E0,8.735213935E-1,-7.700879493E0,-1.017210871E0,7.816732217E0
5.772915250E0,9.149259661E-1,-6.471769620E0,-1.047741815E0,6.619566032E0
5.782870250E0,7.912304579E-1,-5.248636186E0,-1.058087586E0,5.412372566E0
5.792825250E0,5.651411769E-1,-4.044609114E0,-8.688073683E-1,4.175293244E0
5.802780250E0,3.141369466E-1,-2.793026052E0,-5.476744840E-1,2.863498540E0
5.812735250E0,5.853537954E-2,-1.479281241E0,-1.574044141E-1,1.488783238E0
5.822690250E0,-2.089087361E-1,-1.555558169E-1,1.915971771E-1,3.233418477E-1
5.832645250E0,-4.729494799E-1,1.109586938E0,5.154345448E-1,1.311692477E0
5.842600250E0,-7.399671143E-1,2.309619192E0,8.326388311E-1,2.564211295E0
5.852554750E0,-9.906674355E-1,3.436205741E0,1.094399965E0,3.739872076E0
5.862508750E0,-1.173086384E0,4.567750728E0,1.284330393E0,4.887738018E0
5.872463750E0,-1.346765208E0,5.711790045E0,1.494184624E0,6.055651058E0
5.882418750E0,-1.608574581E0,6.832970842E0,2.197314645E0,7.355623316E0
5.892373750E0,-1.969391202E0,7.905323880E0,3.022590662E0,8.689574309E0
5.902328750E0,-2.090119395E0,8.843932385E0,3.061767007E0,9.589481546E0
5.912283750E0,-2.045941926E0,9.508658479E0,2.653545985E0,1.008175435E1
5.922238750E0,-1.772486361E0,9.835201499E0,2.127678838E0,1.021762760E1
5.932193750E0,-1.492274339E0,9.984436476E0,1.625702537E0,1.022539795E1
5.942148750E0,-1.305781342E0,9.998072183E0,1.259016773E0,1.016128120E1
5.952103750E0,-1.221985333E0,9.936095206E0,1.049641941E0,1.006583252E1
5.962058750E0,-1.239123230E0,9.913241948E0,9.972999322E-1,1.004003981E1
5.972013750E0,-1.361628537E0,9.708286514E0,1.011570647E0,9.855360698E0
5.981968750E0,-1.367572671E0,9.059182427E0,7.340583567E-1,9.191185066E0
5.991923750E0,-1.350255703E0,8.174779365E0,2.699227504E-1,8.289937661E0
6.001878750E0,-1.413205365E0,6.531155112E0,-3.009313390E-2,6.682368001E0
6.011833750E0,-1.187895189E0,3.277350340E0,-7.700396367E-1,3.570025388E0
6.021788750E0,-8.764393003E-1,-2.350408199E0,-3.773683054E0,4.531362747E0
6.031743750E0,-1.013027627E0,-1.079404546E1,-7.465282896E0,1.316313379E1
6.041698750E0,-1.738825695E0,-1.780055231E1,-8.444728940E0,1.977869117E1
6.051653750E0,-2.267014771E0,-1.707886323E1,-5.783417852E0,1.817346547E1
6.061608750E0,-1.974719185E0,-1.024588537E1,-2.853422527E0,1.081756456E1
6.071563750E0,-1.190593606E0,-4.159270674E0,-6.322149897E-1,4.372269601E0
6.081518750E0,-4.542420809E-1,-5.285766006E-1,1.117650833E0,1.317145579E0
6.091473750E0,1.190107922E-1,1.482497794E0,2.018184024E0,2.506996217E0
6.101428750E0,5.447564675E-1,2.859994798E0,2.839261740E0,4.066661663E0
6.111382750E0,8.140414694E-1,3.858267707E0,3.269461277E0,5.122330549E0
6.121337750E0,9.103894038E-1,4.399761391E0,3.055027506E0,5.433222086E0
6.131292750E0,9.231242010E-1,4.599209332E0,2.474728775E0,5.303693740E0
6.141247750E0,1.050720533E0,4.504074549E0,1.764902523E0,4.950311313E0
6.151202750E0,1.403454840E0,4.229233779E0,1.257628352E0,4.630089947E0
6.161157750E0,1.845149710E0,3.905121446E0,9.337054686E-1,4.418863752E0
6.171112750E0,2.383257857E0,3.441831347E0,5.638608925E-1,4.224223022E0
6.181067750E0,2.753269371E0,2.757127656E0,6.349093866E-1,3.947829159E0
6.191022750E0,2.545863077E0,2.003270116E0,1.010606733E0,3.393499069E0
6.200977750E0,1.811530559E0,1.587298025E0,1.749026163E0,2.976617292E0
6.210932750E0,1.063259960E0,1.945078626E0,2.812430037E0,3.581007584E0
6.220887750E0,3.434492945E-1,2.911466668E0,3.938759600E0,4.910032868E0
6.230842750E0,-3.029747947E-1,3.784223830E0,4.617277814E0,5.977574603E0
6.240797750E0,-9.004696025E-1,4.249637053E0,4.477802132E0,6.238667528E0
6.250752750E0,-1.551734090E0,4.644938652E0,3.838999962E0,6.222640474E0
6.260707750E0,-2.016299759E0,5.071832172E0,2.656467254E0,6.070071217E0
6.270662750E0,-2.758656703E0,5.559587606E0,9.056626609E-1,6.272114955E0
6.280617750E0,-3.349843827E0,6.394573510E0,-1.029408163E0,7.291893115E0
6.290572750E0,-3.695069579E0,7.532986051E0,-2.629493464E0,8.792818315E0
6.300527750E0,-3.960312437E0,7.959631650E0,-3.033424676E0,9.393693409E0
6.310482750E0,-4.110108747E0,6.835860536E0,-2.715644585E0,8.425954468E0
6.320437750E0,-3.632986182E0,4.234702095E0,-2.615617729E0,6.162203058E0
6.330392750E0,-2.564599018E0,8.335849106E-2,-3.055117846E0,3.989719515E0
6.340347750E0,-1.440383077E0,-5.388081754E0,-3.556052027E0,6.614501827E0
6.350302750E0,6.546836833E-2,-1.105497629E1,-3.756379097E0,1.167592270E1
6.360257750E0,2.000345777E0,-1.485983553E1,-2.571155501E0,1.521272283E1
6.370211750E0,4.789083335E0,-1.482757644E1,5.163673219E-1,1.559034886E1
6.380166750E0,7.089398730E0,-1.206912088E1,1.559027030E0,1.408381406E1
6.390121750E0,7.085478757E0,-1.025714828E1,-3.365882447E-1,1.247102208E1
6.400076750E0,4.398778474E0,-1.026424680E1,-2.608644924E0,1.146773921E1
6.410031750E0,2.269095211E0,-1.015661125E1,-3.434676694E0,1.095913086E1
6.419986750E0,8.129281595E-1,-1.048221930E1,-3.188529672E0,1.098655975E1
6.429941750E0,1.025034171E-1,-1.095749853E1,-2.634013361E0,1.127010680E1
6.439896750E0,-3.098921239E-1,-1.134279613E1,-2.377451572E0,1.159341766E1
6.449851750E0,-6.250002564E-1,-1.120228052E1,-2.380188361E0,1.146939453E1
6.459806750E0,-9.215328813E-1,-1.029010084E1,-2.600587461E0,1.065356529E1
6.469761750E0,-1.169169262E0,-8.887179562E0,-2.869041317E0,9.411711609E0
6.479716750E0,-1.273870017E0,-7.350971584E0,-2.837813093E0,7.982024254E0
6.489671750E0,-1.190599965E0,-5.997997218E0,-2.573180976E0,6.634362007E0
6.499626750E0,-1.031020825E0,-4.821386570E0,-2.248379256E0,5.418854278E0
6.509581750E0,-9.798265515E-1,-3.696736620E0,-1.837631068E0,4.242971795E0
6.519536750E0,-9.765439247E-1,-2.548945729E0,-1.409586523E0,3.072083419E0
6.529491750E0,-9.441394595E-1,-1.354607493E0,-1.066521610E0,1.965662515E0
6.539446750E0,-8.832099375E-1,-1.119379270E-1,-7.655537260E-1,1.174164554E0
6.549401750E0,-8.320025079E-1,1.180321290E0,-5.450680876E-1,1.543530285E0
6.559356750E0,-8.172246936E-1,2.579298626E0,-3.228212678E-1,2.724858009E0
6.569311750E0,-8.567606422E-1,3.991646204E0,1.304630756E-2,4.082578649E0
6.579266750E0,-9.227174541E-1,5.388407444E0,4.314963023E-1,5.483842754E0
6.589221750E0,-9.892987485E-1,6.660542300E0,8.302721706E-1,6.784606666E0
6.599176750E0,-1.052656692E0,7.810820596E0,1.148894845E0,7.964732504E0
6.609131750E0,-1.120334120E0,8.774403729E0,1.353357943E0,8.948568995E0
6.619086750E0,-1.159361873E0,9.347178263E0,1.437888801E0,9.527926618E0
6.629040750E0,-1.145549215E0,9.755645453E0,1.508941827E0,9.937897496E0
6.638995750E0,-1.121952045E0,1.012962752E1,1.497677751E0,1.030102756E1
6.648950750E0,-1.076215270E0,1.030648240E1,1.344587120E0,1.044938914E1
6.658905750E0,-1.006570108E0,1.036310216E1,1.163985339E0,1.047673287E1
6.668860750E0,-9.342486750E-1,1.035627963E1,9.850571052E-1,1.044488803E1
6.678815750E0,-8.723335317E-1,1.026536829E1,7.207886124E-1,1.032754996E1
6.688770750E0,-7.588295010E-1,1.021986409E1,3.349484297E-1,1.025346940E1
6.698725750E0,-5.550521352E-1,1.011629704E1,-2.698490024E-1,1.013510568E1
6.708680750E0,-4.092767367E-1,9.625485263E0,-6.742868757E-1,9.657750089E0
6.718635750E0,-2.924978998E-1,9.090795983E0,-8.795674145E-1,9.137930043E0
6.728590750E0,3.149139319E-1,6.644958301E0,-1.542422399E0,6.828887791E0
6.738545750E0,1.713597298E0,-1.645031678E0,-3.196731854E0,3.982667381E0
6.748500750E0,3.649932582E0,-1.244844614E1,-4.652172242E0,1.378145586E1
6.758455750E0,4.112976514E0,-2.242918015E1,-4.642205079E0,2.327089956E1
6.768410750E0,2.552407573E0,-2.315181181E1,-2.334016700E0,2.340873359E1
6.778365750E0,5.285440023E-1,-1.298864349E1,1.894252471E-1,1.300077307E1
6.788320750E0,-8.182966344E-1,-4.417317656E0,3.340235975E0,5.598167649E0
6.798275750E0,-1.796426324E0,-3.113390905E-1,5.741275799E0,6.023813358E0
6.808230750E0,-2.110898353E0,2.258223921E0,4.584546854E0,5.529334227E0
6.818185750E0,-2.254049740E0,3.756196956E0,3.302874606E0,5.486231536E0
6.828140750E0,-2.074020841E0,4.648404881E0,1.318335460E0,5.258064166E0
6.838095750E0,-1.837475678E0,4.852086207E0,-8.524608922E-1,5.257922308E0
6.848050750E0,-1.087464071E0,4.865113218E0,-2.205294048E0,5.451167450E0
6.858002167E0,3.220989905E-2,4.692433246E0,-2.391189897E0,5.266664634E0
6.867957167E0,5.599509325E-1,4.296532892E0,-1.175881792E0,4.489592178E0
6.877912167E0,5.454339771E-1,3.792434490E0,2.469820037E-1,3.839408509E0
6.887867167E0,6.454809333E-1,2.998115387E0,1.157570944E0,3.278004271E0
6.897821167E0,9.653579088E-1,2.135754574E0,1.807443502E0,2.959766123E0
6.907776167E0,1.322634918E0,1.622768989E0,2.272800153E0,3.090042532E0
6.917731167E0,1.364719960E0,1.542410704E0,2.464403762E0,3.211662693E0
6.927686167E0,9.979933389E-1,1.928688295E0,2.224220023E0,3.108534053E0
6.937641167E0,5.185881675E-1,2.634857699E0,1.945699746E0,3.316196056E0
6.947596167E0,1.103151785E-1,3.506582828E0,1.821187820E0,3.952849307E0
6.957551167E0,-2.765260841E-1,4.343117074E0,1.679964699E0,4.664913074E0
6.967506167E0,-6.012316903E-1,4.969719322E0,1.456136792E0,5.213436874E0
6.977461167E0,-8.853182973E-1,5.432137601E0,1.081586376E0,5.609076260E0
6.987416167E0,-1.181200712E0,5.851345541E0,4.130201241E-1,5.983649838E0
6.997371167E0,-1.498165555E0,5.829236049E0,-6.646471560E-1,6.055266203E0
7.007326167E0,-1.948389904E0,5.255825922E0,-1.551198193E0,5.816024860E0
7.017281167E0,-2.201938185E0,4.434290369E0,-2.732884516E0,5.655096871E0
7.027236167E0,-2.274574344E0,2.937745224E0,-4.683262765E0,5.978041952E0
7.037191167E0,-2.340256702E0,5.114033282E-1,-6.235550294E0,6.679851964E0
7.047146167E0,-2.389516863E0,-3.381471709E0,-6.892868550E0,8.040881705E0
7.057101167E0,-2.162034008E0,-8.205744465E0,-6.396574427E0,1.062660800E1
7.067056167E0,-1.505123303E0,-1.206811282E1,-4.678263688E0,1.303038351E1
7.077011167E0,-1.194137749E0,-1.305179459E1,-1.646639370E0,1.320934246E1
7.086966167E0,-1.204836327E0,-1.084989105E1,1.085668902E0,1.097043497E1
7.096921167E0,-1.058210378E0,-7.769731042E0,2.144658714E0,8.129458203E0
7.106876167E0,-7.482098611E-1,-6.394561815E0,2.254269157E0,6.821434471E0
7.116831167E0,-3.008587604E-1,-6.246706781E0,2.060533361E0,6.584653319E0
7.126786167E0,1.523940264E-1,-6.916148070E0,2.451888089E0,7.339487943E0
7.136741167E0,6.979388630E-1,-8.138468156E0,-4.579343417E-1,8.181166570E0
7.146696167E0,1.261305373E0,-9.413129593E0,-4.124132709E0,1.035405093E1
7.156651167E0,1.574250840E0,-9.928013184E0,-6.031055621E0,1.172251438E1
7.166605167E0,1.391181973E0,-9.386308415E0,-4.701867436E0,1.058988812E1
7.176560167E0,9.435040864E-1,-8.552225322E0,-1.995914026E0,8.832577807E0
7.186515167E0,1.103443269E0,-7.675792015E0,-6.059899351E-1,7.778341333E0
7.196470167E0,1.729963216E0,-6.348747711E0,-1.965719882E-1,6.583161154E0
7.206425167E0,2.355318837E0,-4.886350306E0,-9.032924920E-2,5.425136451E0
7.216380167E0,2.770608704E0,-3.432103919E0,-2.338418484E-2,4.410913366E0
7.226335167E0,2.898504560E0,-1.963875670E0,2.268529639E-1,3.508503755E0
7.236290167E0,2.653906758E0,-4.120146954E-1,5.867353463E-1,2.749042662E0
7.246245167E0,2.131305720E0,1.098878347E0,7.406513116E-1,2.509693619E0
7.256200167E0,1.447558488E0,2.445247114E0,6.392502134E-1,2.912610489E0
7.266155167E0,7.427845951E-1,3.737297586E0,5.499073894E-1,3.849872769E0
7.276110167E0,1.077580449E-1,5.029101890E0,5.853440014E-1,5.064198378E0
7.286065167E0,-4.049839302E-1,6.233888515E0,6.347376247E-1,6.279193408E0
7.296020167E0,-7.287471845E-1,7.223615134E0,6.314245923E-1,7.287687224E0
7.305975167E0,-9.209321529E-1,8.100136734E0,6.335692779E-1,8.176902908E0
7.315930167E0,-1.015721000E0,8.836586528E0,6.124679191E-1,8.915832411E0
7.325885167E0,-1.072950258E0,9.401749157E0,6.289195720E-1,9.483651686E0
7.335840167E0,-1.093521494E0,9.723843616E0,6.589438549E-1,9.807299880E0
7.345795167E0,-1.097149910E0,9.856755506E0,6.078297615E-1,9.936237922E0
7.355750167E0,-1.106991286E0,9.926244986E0,5.872393763E-1,1.000502970E1
7.365705167E0,-1.146647249E0,9.943826394E0,5.681366324E-1,1.002582977E1
7.375660167E0,-1.242056778E0,9.773618624E0,6.878301966E-1,9.876205568E0
7.385615167E0,-1.361370383E0,8.944558874E0,7.596269882E-1,9.079399536E0
7.395570167E0,-1.453598515E0,7.088015864E0,7.225158799E-1,7.271516123E0
7.405525167E0,-1.343891301E0,3.501327351E0,7.634592533E-1,3.827297621E0
7.415480167E0,-1.218276737E0,-2.606165412E0,-1.921710448E-1,2.883266563E0
7.425434167E0,-1.064896157E0,-1.157299048E1,-2.599102560E0,1.190896497E1
7.435389167E0,-1.966236776E0,-1.877554628E1,-4.432758983E0,1.939166258E1
7.445344167E0,-3.853941936E0,-1.832517269E1,-4.129986649E0,1.917606873E1
7.455299167E0,-4.211071157E0,-1.020801646E1,-2.626499104E0,1.135056025E1
7.465254167E0,-2.864690989E0,-3.491160212E0,-1.343527604E0,4.711657937E0
7.475209167E0,-1.888494243E0,-2.083971047E-1,-7.988408283E-1,2.061064416E0
7.485164167E0,-1.160952681E0,1.872075554E0,-3.139826167E-1,2.225098445E0
7.495119167E0,-6.131440765E-1,3.022226381E0,4.188382499E-2,3.084080448E0
7.505074167E0,-1.468249007E-1,3.843530384E0,1.068273143E-1,3.847816971E0
7.515029167E0,3.192109045E-1,4.403018875E0,2.691239476E-1,4.422770457E0
7.524984167E0,8.913719928E-1,4.645071968E0,6.024362898E-1,4.768035980E0
7.534939167E0,1.408188308E0,4.553146722E0,1.269311381E0,4.932067595E0
7.544894167E0,2.165669514E0,4.286042402E0,1.756190171E0,5.113168082E0
7.554849167E0,3.074097323E0,3.918467131E0,2.054533825E0,5.387538236E0
7.564804167E0,3.847840367E0,3.459373578E0,2.273210481E0,5.651603926E0
7.574759167E0,4.067097213E0,2.716750878E0,2.252147495E0,5.384624723E0
7.584714167E0,2.791378891E0,1.700487841E0,1.924713943E0,3.793148926E0
7.594669167E0,1.671764417E0,1.613884730E0,1.534800407E0,2.784785894E0
7.604624167E0,1.179339397E0,2.478134778E0,1.487071048E0,3.121437760E0
7.614579167E0,5.573650014E-1,3.544843499E0,1.905832407E0,4.063098367E0
7.624534167E0,-4.381238289E-2,4.441212303E0,2.220128434E0,4.965405976E0
7.634489167E0,-6.360126831E-1,4.964031150E0,2.045048764E0,5.406324245E0
7.644444167E0,-1.248807096E0,5.603206081E0,1.452688981E0,5.921633459E0
7.654399167E0,-1.638365121E0,6.521936976E0,8.365620205E-1,6.776410422E0
7.664354167E0,-1.946839807E0,7.453458071E0,-3.364677921E-2,7.703593613E0
7.674309167E0,-2.240724228E0,8.430993245E0,-1.455490967E0,8.844260632E0
7.684263167E0,-2.314024777E0,9.554088421E0,-2.468857878E0,1.013560928E1
7.694218167E0,-2.161411425E0,1.039261891E1,-2.740994019E0,1.096317816E1
7.704173167E0,-2.428400262E0,1.008595817E1,-2.662383175E0,1.071036714E1
7.714128167E0,-2.730274318E0,7.809874517E0,-2.017104336E0,8.515705944E0
7.724083167E0,-2.658305911E0,4.817108747E0,-1.846182328E0,5.803405568E0
7.734038167E0,-2.233818812E0,1.332926018E0,-2.024200517E0,3.296062194E0
7.743993167E0,-1.642762958E0,-3.576958746E0,-2.706938958E0,4.777114457E0
7.753948167E0,-9.266850822E-1,-1.079079558E1,-3.432556201E0,1.136144606E1
7.763903167E0,-1.694543196E-2,-1.904754589E1,-3.675661208E0,1.939896330E1
7.773858167E0,8.371824101E-1,-2.345601437E1,-3.527272908E0,2.373451366E1
7.783813167E0,1.459873601E0,-2.053933667E1,-2.486232295E0,2.074070714E1
7.793768167E0,8.669083388E-1,-1.348187601E1,-1.160382870E-1,1.351021746E1
7.803723167E0,1.646517456E-2,-8.059222596E0,2.173866141E-1,8.062170731E0
7.813678167E0,-2.895157833E-1,-5.627890102E0,-1.323498259E0,5.788662542E0
7.823633167E0,-3.596530254E-1,-5.565680990E0,-3.071590914E0,6.367167810E0
7.833588167E0,8.455941780E-2,-7.287862000E0,-3.972097793E0,8.300460452E0
7.843543167E0,1.268116941E0,-9.483045335E0,-3.385802742E0,1.014888810E1
7.853498292E0,1.895509586E0,-1.134949704E1,-2.346085353E0,1.174343034E1
7.863453292E0,2.215233291E0,-1.200018572E1,-1.748887876E0,1.232762445E1
7.873408292E0,2.255605684E0,-1.124445298E1,-1.625305804E0,1.158305222E1
7.883363292E0,2.184228869E0,-9.926698730E0,-1.684682525E0,1.030283255E1
7.893318292E0,2.150466169E0,-8.466316860E0,-1.725829966E0,8.904016789E0
7.903273292E0,2.014639296E0,-7.014322236E0,-1.672374720E0,7.487077208E0
7.913228292E0,1.624751780E0,-5.611914924E0,-1.508223789E0,6.033916345E0
7.923183292E0,1.159901279E0,-4.166025962E0,-1.371535621E0,4.536766828E0
7.933138292E0,7.564601362E-1,-2.621555284E0,-1.314435075E0,3.028617442E0
7.943092292E0,3.885169649E-1,-1.087189763E0,-1.228821605E0,1.686098915E0
7.953047292E0,5.664064413E-2,4.374857515E-1,-1.049768460E0,1.138690373E0
7.963002292E0,-1.870333887E-1,1.981212080E0,-8.383283181E-1,2.159392776E0
7.972957292E0,-3.788666106E-1,3.563676796E0,-5.854441349E-1,3.631263836E0
7.982912292E0,-5.542904623E-1,5.030769516E0,-3.218798661E-1,5.071438305E0
7.992867292E0,-7.100553171E-1,6.422758259E0,-1.242476316E-1,6.463082831E0
8.002822292E0,-8.279638360E-1,7.778749788E0,4.204615831E-2,7.822802583E0
8.012777292E0,-9.237172548E-1,8.979725198E0,1.684583560E-1,9.028681876E0
8.022732292E0,-9.582611431E-1,9.814607606E0,2.187104237E-1,9.863702202E0
8.032687292E0,-9.334288953E-1,1.020364976E1,2.542370097E-1,1.024940947E1
8.042642292E0,-8.809551050E-1,1.031022462E1,2.664446803E-1,1.035122246E1
8.052597292E0,-8.485763676E-1,1.033428007E1,2.494234721E-1,1.037206047E1
8.062552292E0,-8.535487667E-1,1.032160330E1,2.487066400E-1,1.035982120E1
8.072507292E0,-8.952359059E-1,1.026228681E1,3.348349571E-1,1.030670133E1
8.082462292E0,-9.221885734E-1,1.024300152E1,4.091062903E-1,1.029256430E1
8.092417292E0,-9.221883541E-1,1.024781027E1,4.924168342E-1,1.030099612E1
8.102372292E0,-9.771915038E-1,1.019791949E1,5.490915567E-1,1.025933559E1
8.112327292E0,-1.107237819E0,9.826511368E0,5.990887588E-1,9.906826363E0
8.122282292E0,-1.052847019E0,9.299992402E0,6.221414065E-1,9.380053596E0
8.132237292E0,-1.026971190E0,8.797282714E0,4.754259950E-1,8.869773552E0
8.142192292E0,-1.763695073E0,5.473059924E0,3.701883924E-1,5.762121544E0
8.152147292E0,-2.778266510E0,-1.848105478E0,-2.353504300E-2,3.336886656E0
8.162102292E0,-3.449389458E0,-1.045344398E1,-2.065960454E0,1.120004336E1
8.172057292E0,-4.014899996E0,-1.922929724E1,-3.653322798E0,1.998079232E1
8.182012292E0,-4.503760261E0,-1.991537093E1,-2.059739016E0,2.052190002E1
8.191967292E0,-3.094942355E0,-1.114301782E1,-2.913163968E-1,1.156850809E1
8.201922292E0,-1.631104195E0,-4.532210181E0,4.658291792E-1,4.839258915E0
8.211877292E0,-1.108381388E0,-1.625217218E0,2.181773038E-1,1.979252800E0
8.221831292E0,-8.497742428E-1,1.858426398E-1,4.867807031E-2,8.712194356E-1
8.231786292E0,-4.679558115E-1,1.381410545E0,6.645115006E-1,1.602764259E0
8.241741292E0,2.331470164E-1,2.265922365E0,1.451526847E0,2.701053847E0
8.251696292E0,1.197384489E0,2.610584738E0,2.490081224E0,3.801234903E0
8.261651292E0,2.138095799E0,2.856116340E0,4.315396010E0,5.599240744E0
8.271606292E0,3.053849292E0,2.666342617E0,6.256997881E0,7.455561745E0
8.281561292E0,3.588963080E0,1.615825421E0,7.643334121E0,8.597214913E0
8.291516292E0,2.379211876E0,7.044959307E-2,7.792171487E0,8.147610004E0
8.301471292E0,6.939387097E-1,-5.946647555E-1,6.972440969E0,7.032077230E0
8.311426292E0,-1.381661975E-1,2.465653896E-2,5.277797420E0,5.279663195E0
8.321381292E0,-6.430753887E-1,1.568602722E0,2.484138407E0,3.007491327E0
8.331336292E0,-1.730093755E0,2.910214779E0,-4.912508994E-2,3.385998780E0
8.341291292E0,-3.021221244E0,4.138879094E0,3.073466116E-1,5.133474447E0
8.351246292E0,-3.622571706E0,5.192370769E0,6.408387557E-1,6.363522160E0
8.361201292E0,-3.790361945E0,6.607918528E0,1.101937026E-1,7.618633316E0
8.371156292E0,-3.588118157E0,8.624927262E0,-5.225337955E-1,9.356121192E0
8.381111292E0,-2.991253095E0,1.112711573E1,-1.456121443E0,1.161381028E1
8.391066292E0,-2.506454598E0,1.339357136E1,-2.978783323E0,1.394787506E1
8.401021292E0,-2.210429950E0,1.447999456E1,-5.097687975E0,1.550943795E1
8.410976292E0,-1.864213387E0,1.429464834E1,-7.269604654E0,1.614495013E1
8.420931292E0,-1.386364452E0,1.230271247E1,-8.109434391E0,1.480005631E1
8.430886292E0,-1.014265921E0,9.525875605E0,-7.924900943E0,1.243282335E1
8.440841292E0,-1.048853005E0,6.159372768E0,-5.642998137E0,8.419108831E0
8.450796292E0,4.652327632E-1,3.708148046E0,-9.714140162E-1,3.861405009E0
8.460751292E0,2.404586746E0,-2.177341726E0,1.660809220E0,3.644330072E0
8.470706292E0,3.832500197E0,-1.629725188E1,1.481861617E0,1.680727195E1
8.480661292E0,5.318194664E0,-2.887386898E1,-8.624181157E-1,2.937221935E1
8.490616292E0,6.875904023E0,-3.006237403E1,-4.513948157E0,3.116729242E1
8.500571292E0,6.044185544E0,-2.351998291E1,-5.129645932E0,2.482005323E1
8.510526292E0,2.552407573E0,-1.644617461E1,-3.016743447E0,1.691425981E1
8.520480292E0,-2.205358879E-1,-1.101495444E1,-2.276556989E0,1.124991418E1
8.530435292E0,-1.546765565E0,-8.478056899E0,-3.762527444E0,9.403538976E0
8.540390292E0,-2.715675575E0,-8.630190926E0,-4.751143092E0,1.021902392E1
8.550345292E0,-3.796157705E0,-1.086531250E1,-4.232172005E0,1.226283445E1
8.560300292E0,-4.285659410E0,-1.344099696E1,-3.036085451E0,1.443069959E1
8.570255292E0,-3.266871837E0,-1.434633188E1,-2.264482196E0,1.488682537E1
8.580210292E0,-1.487616008E0,-1.306436844E1,-2.371323690E0,1.336090941E1
8.590165292E0,-4.764296330E-1,-1.120729275E1,-3.010367643E0,1.161433207E1
8.600120292E0,3.886261252E-1,-9.273509778E0,-3.106935286E0,9.787852713E0
8.610075292E0,1.082216779E0,-7.464107605E0,-2.690191363E0,8.007572982E0
8.620030292E0,1.481796859E0,-5.652904490E0,-2.013083206E0,6.180902450E0
8.629985292E0,1.553920218E0,-3.923315642E0,-1.441248904E0,4.459178408E0
8.639940292E0,1.452074146E0,-2.279221857E0,-1.120900716E0,2.925711882E0
8.649895292E0,1.266105499E0,-7.365842807E-1,-9.450921902E-1,1.743209335E0
8.659850292E0,1.057161533E0,7.619623661E-1,-7.930132739E-1,1.525466226E0
8.669805292E0,8.616937919E-1,2.271701753E0,-6.255114493E-1,2.508866202E0
8.679760292E0,6.641703156E-1,3.825182991E0,-4.214295897E-1,3.905220867E0
8.689715292E0,4.972792691E-1,5.352182189E0,-2.858541472E-1,5.382829502E0
8.699670292E0,3.574494657E-1,6.835619046E0,-1.752002688E-1,6.847200377E0
8.709625292E0,1.870440416E-1,8.271475940E0,-1.629094215E-1,8.275194208E0
8.719580292E0,-5.534371343E-3,9.435281770E0,-2.274849748E-1,9.438025329E0
8.729535292E0,-1.603654076E-1,1.012594494E1,-2.904417995E-1,1.013137871E1
8.739490292E0,-2.785722441E-1,1.037466094E1,-3.665536901E-1,1.038487138E1
8.749445292E0,-3.080812046E-1,1.030350968E1,-3.309886587E-1,1.031342713E1
8.759400292E0,-3.136321126E-1,1.016929737E1,-1.874862921E-1,1.017585992E1
8.769355292E0,-3.400410987E-1,1.011729925E1,-1.442057866E-1,1.012403908E1
8.779310292E0,-4.129535390E-1,1.011912709E1,-1.039705292E-1,1.012808341E1
8.789265292E0,-4.994465762E-1,1.017547788E1,8.154526949E-2,1.018805411E1
8.799220292E0,-5.641299375E-1,1.026100978E1,2.774392730E-1,1.028024984E1
8.809175292E0,-6.283243985E-1,1.037175955E1,1.462132088E-1,1.039180283E1
8.819129292E0,-7.011675493E-1,1.036971887E1,-8.226747371E-2,1.039372279E1
8.829084292E0,-7.331843441E-1,1.010125449E1,-2.999474718E-1,1.013226875E1
8.839039292E0,-7.682465149E-1,9.519365900E0,-6.341363847E-1,9.571345715E0
8.848994292E0,-8.087226959E-1,9.332357326E0,-8.281411529E-1,9.403868535E0
8.858949000E0,-9.014950579E-1,9.219807780E0,-9.476558288E-1,9.312121155E0
8.868904000E0,-1.005335395E0,8.675670569E0,-9.941236516E-1,8.790121780E0
8.878859000E0,-1.238521551E0,2.289339879E0,-1.365413733E0,2.939280078E0
8.888814000E0,-1.402163191E0,-5.528510824E0,-3.097664818E0,6.490456138E0
8.898769000E0,-9.827598803E-1,-1.628917804E1,-6.086769061E0,1.741700020E1
8.908724000E0,2.119155206E-1,-2.244720595E1,-5.666468276E0,2.315233953E1
8.918679000E0,1.202437580E0,-1.713897377E1,-4.999509716E-1,1.718837482E1
8.928634000E0,1.088431639E0,-6.747562902E0,2.864297179E0,7.410700836E0
8.938589000E0,3.576846334E-1,-5.669834518E-1,3.923620867E0,3.980478518E0
8.948544000E0,-2.113798425E-1,2.600979517E0,3.416031092E0,4.298725893E0
8.958499000E0,-5.683649296E-1,4.733413457E0,3.479067585E0,5.901877067E0
8.968454000E0,-8.677563313E-1,6.904539008E0,3.881911215E0,7.968368380E0
8.978409000E0,-1.279679079E0,8.725628010E0,4.106560364E0,9.728206450E0
8.988364000E0,-1.471909071E0,9.969371710E0,4.672022078E0,1.110777561E1
8.998319000E0,-1.568767029E0,1.107860489E1,5.080273798E0,1.228843758E1
9.008274000E0,-1.327445276E0,1.188663396E1,5.027726040E0,1.297429023E1
9.018229000E0,-6.786543073E-1,1.155332279E1,4.602777596E0,1.245493479E1
9.028184000E0,3.383229674E-1,1.087538374E1,4.026442107E0,1.160175289E1
9.038139000E0,1.394850516E0,9.751270566E0,2.964665513E0,1.028698825E1
9.048094000E0,1.839414176E0,8.226365840E0,1.403230015E0,8.545501385E0
9.058049000E0,1.629101962E0,6.114770792E0,3.679301977E-2,6.328171045E0
9.068004000E0,9.865214673E-1,3.553412594E0,-1.031006792E0,3.829221941E0
9.077959000E0,5.341909508E-1,2.762160355E-1,-2.480996405E0,2.552841247E0
9.087914000E0,5.537530301E-1,-5.242662086E0,-4.422959050E0,6.881476217E0
9.097869000E0,1.038525580E0,-1.488247361E1,-5.658708436E0,1.595579949E1
9.107824000E0,6.643502636E-1,-2.514153276E1,-3.793335546E0,2.543476804E1
9.117778000E0,-1.172084610E0,-2.504014672E1,9.778512159E-1,2.508662837E1
9.127733000E0,-3.420007199E0,-1.433202959E1,3.519931729E0,1.514904092E1
9.137688000E0,-3.481285727E0,-5.103808256E0,4.515102983E-1,6.194519398E0
9.147643000E0,-2.961631100E0,-1.496009540E0,-3.145521939E0,4.572046761E0
9.157598000E0,-2.281946221E0,-9.793454719E-1,-6.169979618E0,6.650943135E0
9.167553000E0,-7.022883875E-1,-3.194390044E0,-7.569230602E0,8.245640584E0
9.177508000E0,8.132623279E-1,-6.562031334E0,-6.291548494E0,9.127170059E0
9.187463000E0,1.605857672E0,-9.540186666E0,-3.071647340E0,1.015031812E1
9.197418000E0,2.342641197E0,-1.182015580E1,-1.629316701E0,1.215971726E1
9.207373000E0,2.527184731E0,-1.280790489E1,-2.314525006E0,1.325843566E1
9.217328000E0,2.025428724E0,-1.254023573E1,-3.443280579E0,1.316115704E1
9.227283000E0,1.527950979E0,-1.131779811E1,-3.826703559E0,1.204453604E1
9.237238000E0,1.333656773E0,-9.595236447E0,-3.604844410E0,1.033644552E1
9.247193000E0,1.102635768E0,-8.282983845E0,-3.255256928E0,8.967737991E0
9.257148000E0,7.403213093E-1,-7.332697281E0,-3.004373954E0,7.958818248E0
9.267103000E0,3.965379927E-1,-6.456332971E0,-3.039256396E0,7.146926420E0
9.277058000E0,2.349771401E-1,-5.534382014E0,-3.154207978E0,6.374451074E0
9.287013000E0,2.744191861E-1,-4.563710886E0,-2.984964707E0,5.460107805E0
9.296968000E0,4.430990785E-1,-3.488942363E0,-2.528998538E0,4.331845936E0
9.306923000E0,6.032919933E-1,-2.302240591E0,-1.945253165E0,3.073805922E0
9.316878000E0,6.946115050E-1,-9.972169018E-1,-1.334660887E0,1.805061321E0
9.326833000E0,6.945588800E-1,3.543488699E-1,-7.663258508E-1,1.093265964E0
9.336788000E0,6.202348488E-1,1.746814746E0,-2.805140314E-1,1.874764291E0
9.346743000E0,4.680912477E-1,3.088381194E0,1.495460486E-1,3.127230698E0
9.356698000E0,2.921692132E-1,4.322717308E0,4.940780282E-1,4.360660601E0
9.366653000E0,7.143557981E-2,5.463632458E0,7.985729527E-1,5.522146453E0
9.376608000E0,-1.553267522E-1,6.539015524E0,1.247524363E0,6.658766211E0
9.386563000E0,-3.743614771E-1,7.554854053E0,1.808358883E0,7.777282824E0
9.396518000E0,-6.157218947E-1,8.466082386E0,2.049575386E0,8.732377894E0
9.406472000E0,-8.404897414E-1,9.259937806E0,2.128498764E0,9.538520753E0
9.416427000E0,-9.758206241E-1,9.794021899E0,2.115699209E0,1.006733699E1
9.426382000E0,-1.048872374E0,1.007502388E1,2.052414794E0,1.033531064E1
9.436337000E0,-1.086487220E0,1.013616588E1,1.992363889E0,1.038709907E1
9.446292000E0,-1.088472642E0,1.013466548E1,2.033619504E0,1.039383593E1
9.456247000E0,-1.130620396E0,1.018100583E1,2.148125528E0,1.046640461E1
9.466202000E0,-1.136918286E0,1.023307646E1,2.342289340E0,1.055910774E1
9.476157000E0,-1.155732652E0,1.027539159E1,2.527261330E0,1.064454978E1
9.486112000E0,-1.129943069E0,1.031884108E1,2.581639266E0,1.069673379E1
9.496067000E0,-9.694117103E-1,1.030094158E1,2.441246449E0,1.063056164E1
9.506022000E0,-7.314199468E-1,9.593955322E0,1.993394022E0,9.826116913E0
9.515977000E0,-7.112865215E-1,9.081567907E0,1.207000820E0,9.188996417E0
9.525932000E0,-9.873928486E-1,9.078349015E0,3.004486513E-1,9.136828491E0
9.535887000E0,-9.601591493E-1,5.031191685E0,-1.003240703E0,5.219318659E0
9.545842000E0,-5.610898239E-1,-3.051896322E0,-3.512599028E0,4.686922752E0
9.555797000E0,-1.169854628E-1,-1.358317786E1,-6.946512076E0,1.525681606E1
9.565752000E0,1.023030605E0,-2.177310151E1,-8.410656044E0,2.336351164E1
9.575707000E0,1.553577863E0,-2.253277878E1,-4.615475117E0,2.305303308E1
9.585662000E0,1.636464630E0,-1.513605566E1,-5.644983852E-1,1.523472533E1
9.595617000E0,4.173387314E-1,-6.975971518E0,4.931344338E-1,7.005821280E0
9.605572000E0,-6.211882373E-1,-2.474007229E0,5.686759284E-1,2.613422833E0
9.615527000E0,-1.123222791E0,1.839335239E-1,4.636504336E-1,1.228996625E0
9.625482000E0,-1.566379903E0,2.167181019E0,8.142331119E-1,2.795209318E0
9.635437000E0,-1.947623480E0,3.972091361E0,3.158425867E0,5.435660122E0
9.645392000E0,-1.751682553E0,5.688372531E0,5.547685014E0,8.136509253E0
9.655347000E0,-9.462769823E-1,6.675309443E0,5.624405161E0,8.780041555E0
9.665302000E0,-2.836335940E-1,7.177256654E0,5.118605804E0,8.820067260E0
9.675257000E0,-4.713499010E-2,7.651862869E0,4.492038348E0,8.873084897E0
9.685212000E0,-6.273748107E-2,8.350263078E0,3.893037590E0,9.213390860E0
9.695167000E0,-1.533215958E-1,9.194030330E0,3.447538522E0,9.820347401E0
9.705121000E0,-3.575300476E-1,9.759303471E0,2.423070087E0,1.006196306E1
9.715076000E0,-9.844514798E-1,9.802805586E0,4.642502117E-1,9.863045692E0
9.725031000E0,-1.800241047E0,9.850024191E0,-9.439040360E-1,1.005757422E1
9.734986000E0,-2.238275414E0,9.932610265E0,-1.416454955E0,1.027973580E1
9.744941000E0,-2.137815717E0,9.301085832E0,-9.821644145E-1,9.594013791E0
9.754896000E0,-1.626080852E0,7.699788988E0,-3.504704118E-2,7.869696162E0
9.764851000E0,-9.281574842E-1,5.602516694E0,4.052711016E-1,5.693321903E0
9.774806000E0,1.098180190E-4,2.778391641E0,-3.949007723E-1,2.806315510E0
9.784761000E0,8.172749797E-1,-1.179969288E0,-1.955737223E0,2.425937756E0
9.794716000E0,1.483541230E0,-6.455082836E0,-3.941285597E0,7.707316080E0
9.804671000E0,2.128426989E0,-1.386009965E1,-5.496973282E0,1.506151649E1
9.814626000E0,2.655588710E0,-2.105126508E1,-5.214980782E0,2.184957522E1
9.824581000E0,3.204136476E0,-2.185348669E1,-2.835070456E0,2.226834066E1
9.834536000E0,3.790359606E0,-1.430135627E1,8.684109271E-1,1.482058550E1
9.844491000E0,2.435148680E0,-7.745763890E0,1.344993501E0,8.230177085E0
9.854446375E0,1.200349247E0,-5.995347260E0,-8.458237177E-1,6.172555779E0
9.864401375E0,1.091996028E0,-6.510886323E0,-2.928434995E0,7.222176096E0
9.874356375E0,1.651855086E0,-8.386315840E0,-4.219502842E0,9.532215001E0
9.884311375E0,2.439642850E0,-1.054151591E1,-5.221332028E0,1.201406356E1
9.894266375E0,2.430384369E0,-1.182317296E1,-5.091058987E0,1.310011712E1
9.904221375E0,1.787616909E0,-1.138142166E1,-3.436372386E0,1.202252006E1
9.914176375E0,1.498887540E0,-1.010997620E1,-2.480249424E0,1.051712507E1
9.924131375E0,1.318510146E0,-9.234648013E0,-2.496769270E0,9.656658310E0
9.934086375E0,1.172404818E0,-8.427604784E0,-2.671949804E0,8.918428741E0
9.944041375E0,1.068024783E0,-7.429692648E0,-2.743553638E0,7.991751769E0
9.953996375E0,1.014974750E0,-6.199171257E0,-2.742832968E0,6.854416876E0
9.963951375E0,8.445686129E-1,-4.803311073E0,-2.673033878E0,5.561492921E0
9.973906375E0,6.199643420E-1,-3.375566606E0,-2.572967845E0,4.289401966E0
9.983861375E0,3.590021572E-1,-1.990486348E0,-2.348676839E0,3.099548571E0
9.993815375E0,6.626488701E-2,-6.080770987E-1,-2.019774321E0,2.110364210E0
1.000377037E1,-1.930690674E-1,7.622670060E-1,-1.683644059E0,1.858220646E0
1.001372537E1,-4.291591702E-1,2.103112493E0,-1.378388704E0,2.550924375E0
1.002368038E1,-7.126163976E-1,3.446989760E0,-1.037522929E0,3.669606841E0
1.003363538E1,-1.017937826E0,4.798539745E0,-7.135006428E-1,4.956941019E0
1.004359038E1,-1.294741653E0,6.140147123E0,-4.392581888E-1,6.290525447E0
1.005354538E1,-1.515661155E0,7.365172716E0,-2.562052555E-1,7.523871278E0
1.006350038E1,-1.624489532E0,8.375085093E0,-1.797423128E-1,8.533072357E0
1.007345538E1,-1.630752047E0,9.113325305E0,-1.413530032E-1,9.259159304E0
1.008341038E1,-1.596966688E0,9.505458298E0,-7.413341202E-2,9.638959270E0
1.009336537E1,-1.492354592E0,9.761041263E0,1.654882628E-2,9.874478348E0
1.010332037E1,-1.328883253E0,9.996797490E0,1.359162072E-1,1.008565139E1
1.011327537E1,-1.201305924E0,1.008590906E1,2.208142519E-1,1.015959922E1
1.012323038E1,-1.131701619E0,1.010757299E1,2.329302675E-1,1.017339849E1
1.013318538E1,-1.058379801E0,1.007459119E1,2.511461166E-1,1.013314511E1
1.014314038E1,-1.051752055E0,9.995752008E0,3.913804561E-1,1.005854956E1
1.015309538E1,-1.489196364E0,9.771430011E0,1.022548794E0,9.937009425E0
1.016305038E1,-1.906307347E0,9.293702552E0,1.590402896E0,9.619578796E0
1.017300538E1,-1.852014341E0,8.345304639E0,1.385277894E0,8.659853433E0
1.018296038E1,-1.680211451E0,6.925043439E0,9.089987898E-1,7.183704890E0
1.019291538E1,-2.060890187E0,4.344777684E0,4.328541720E-1,4.828221641E0
1.020287037E1,-2.594168680E0,5.398658198E-1,-2.959726077E-1,2.666226927E0
1.021282537E1,-3.050450306E0,-4.060411799E0,-1.863756135E0,5.409785391E0
1.022278037E1,-3.286176712E0,-9.302568101E0,-4.384280888E0,1.079623312E1
1.023273538E1,-3.245159371E0,-1.373227016E1,-6.080229535E0,1.536474843E1
1.024269038E1,-2.467933726E0,-1.479760595E1,-5.406003470E0,1.594630717E1
1.025264538E1,-1.369002900E0,-1.061196200E1,-2.020356849E0,1.088897370E1
1.026259937E1,-4.223287453E-1,-5.307746274E0,1.508573452E0,5.534105704E0
1.027255437E1,1.178156578E-1,-2.194483423E0,2.779980329E0,3.543716785E0
1.028250937E1,2.770982159E-1,-3.832610124E-1,2.404641709E0,2.450708913E0
1.029246438E1,2.607517033E-1,6.597161990E-1,1.758882083E0,1.896545042E0
1.030241938E1,2.561806972E-1,1.493543769E0,1.369305639E0,2.042375938E0
1.031237438E1,3.507284933E-1,2.280771369E0,1.343370899E0,2.670126193E0
1.032232938E1,6.253779866E-1,2.900514833E0,1.627290641E0,3.384103833E0
1.033228438E1,1.040694678E0,3.255062508E0,2.109596031E0,4.016076787E0
1.034223938E1,1.609437922E0,3.348931369E0,2.867518702E0,4.693431074E0
1.035219438E1,2.225731382E0,3.154796208E0,3.661212738E0,5.320817420E0
1.036214937E1,2.663064668E0,2.566786169E0,4.062762672E0,5.494210152E0
1.037210437E1,1.931316619E0,1.485710254E0,4.142612834E0,4.806096122E0
1.038205937E1,8.674167542E-1,6.306379956E-1,4.137839752E0,4.274556575E0
1.039201438E1,2.572577909E-1,4.230618399E-1,4.306781307E0,4.335150299E0
1.040196938E1,-2.500688585E-1,7.624506086E-1,4.596633049E0,4.666144099E0
1.041192438E1,-8.473233823E-1,1.482487854E0,4.706200223E0,5.006400672E0
1.042187938E1,-1.553363124E0,2.485216341E0,4.418982066E0,5.302512589E0
1.043183438E1,-2.101955329E0,3.659907932E0,3.468521255E0,5.462946272E0
1.044178938E1,-2.501218416E0,4.884410200E0,2.540922765E0,6.047300642E0
1.045174438E1,-2.795761087E0,6.128422287E0,2.046716390E0,7.040091460E0
1.046169938E1,-2.971031961E0,7.296652704E0,1.089312010E0,7.953286884E0
1.047165437E1,-2.722330291E0,8.745358270E0,-2.303004822E-1,9.162172875E0
1.048160937E1,-2.174276469E0,1.049959489E1,-1.766718522E0,1.086693449E1
1.049156437E1,-1.417670884E0,1.155576225E1,-2.881176629E0,1.199360707E1
1.050151938E1,-6.618831772E-1,9.332763707E0,-2.510043619E0,9.687047368E0
1.051147338E1,2.715327629E-1,5.168925773E0,-2.201916404E0,5.624940847E0
1.052142838E1,2.294888010E0,1.531150721E0,-3.117510853E0,4.162908530E0
1.053138337E1,3.950369539E0,-1.186329305E0,-3.707606009E0,5.546092231E0
1.054133837E1,4.656310902E0,-4.276112661E0,-4.857085576E0,7.972305250E0
1.055129337E1,4.836096703E0,-7.962234830E0,-6.495830913E0,1.135697293E1
1.056124838E1,4.009374377E0,-1.176831555E1,-6.103869828E0,1.385011049E1
1.057120338E1,2.111452084E0,-1.371084596E1,-2.104466708E0,1.403119051E1
1.058115838E1,4.756246541E-1,-1.298635489E1,1.450322320E0,1.307574346E1
1.059111338E1,2.048500924E-1,-1.165809320E1,-6.776405463E-1,1.167956751E1
1.060106838E1,5.768801750E-2,-1.120613734E1,-4.461086989E0,1.206159770E1
1.061102338E1,-4.320036945E-1,-1.075589004E1,-7.105944597E0,1.289845907E1
1.062097838E1,-1.630070261E0,-1.055979548E1,-7.102266698E0,1.282998838E1
1.063093337E1,-2.285960042E0,-1.117908578E1,-5.609301803E0,1.271463090E1
1.064088837E1,-1.921377229E0,-1.199277964E1,-5.007987009E0,1.313767056E1
1.065084337E1,-9.198925911E-1,-1.195745076E1,-4.802505034E0,1.291862553E1
1.066079838E1,1.503124998E-1,-1.095741550E1,-4.478379837E0,1.183821922E1
1.067075338E1,5.682190051E-1,-9.833777118E0,-3.929232732E0,1.060494767E1
1.068070838E1,6.177317289E-1,-8.681144732E0,-3.424407814E0,9.352563030E0
1.069066338E1,6.906041888E-1,-7.608509858E0,-2.994050403E0,8.205528272E0
1.070061838E1,7.427671997E-1,-6.638890060E0,-2.634270054E0,7.180943048E0
1.071057338E1,7.382736875E-1,-5.551573997E0,-2.386134979E0,6.087582609E0
1.072052838E1,7.003475504E-1,-4.237643829E0,-2.135662626E0,4.796787130E0
1.073048338E1,6.042297770E-1,-2.697418814E0,-1.747783922E0,3.270460291E0
1.074043837E1,4.747020001E-1,-1.105407933E0,-1.304835263E0,1.774785550E0
1.075039337E1,3.246709980E-1,5.202413946E-1,-8.583934772E-1,1.054941575E0
1.076034837E1,1.458913561E-1,2.166971104E0,-3.943642902E-1,2.207390144E0
1.077030238E1,-3.842757236E-2,3.761708542E0,4.919247910E-2,3.762226433E0
1.078025738E1,-2.341051923E-1,5.262397023E0,4.290463190E-1,5.285045735E0
1.079021238E1,-4.408405184E-1,6.581255225E0,6.734049694E-1,6.630289206E0
1.080016737E1,-6.403212771E-1,7.755871972E0,7.674657655E-1,7.820010555E0
1.081012237E1,-8.144754790E-1,8.783514860E0,7.582845405E-1,8.853727975E0
1.082007737E1,-9.535294300E-1,9.589103302E0,8.045056108E-1,9.669919844E0
1.083003238E1,-1.044591043E0,1.012765818E1,8.810175240E-1,1.021943357E1
1.083998738E1,-1.119634136E0,1.032874743E1,9.278373492E-1,1.043060335E1
1.084994238E1,-1.171936310E0,1.033197860E1,1.080792325E0,1.045424931E1
1.085989729E1,-1.243963117E0,1.035175155E1,1.178003454E0,1.049256387E1
1.086985229E1,-1.339244519E0,1.035604106E1,1.347945760E0,1.052891828E1
1.087980729E1,-1.424132203E0,1.033511973E1,1.587027884E0,1.055279630E1
1.088976229E1,-1.459383166E0,1.035060315E1,1.839812372E0,1.061365604E1
1.089971729E1,-1.412490250E0,1.041017459E1,1.938591725E0,1.068293038E1
1.090967229E1,-1.275787903E0,1.038946375E1,1.636784180E0,1.059469935E1
1.091962729E1,-1.068400686E0,1.031297281E1,1.176639884E0,1.043471943E1
1.092958229E1,-9.421502367E-1,9.819184806E0,7.503603208E-1,9.892779081E0
1.093953729E1,-1.074865441E0,9.464090416E0,3.237275863E-1,9.530432450E0
1.094949229E1,-1.228560966E0,8.738190753E0,3.683102667E-1,8.831817035E0
1.095944729E1,-1.508728696E0,1.377964781E0,4.283179021E-1,2.087703389E0
1.096940229E1,-8.473988845E-1,-7.338744471E0,-2.086479503E0,7.676499984E0
1.097935729E1,6.760368012E-2,-2.142734395E1,-6.620299423E0,2.242685898E1
1.098931229E1,-4.541001762E-1,-2.880675230E1,-6.671076643E0,2.957259624E1
1.099926729E1,-1.820299336E0,-2.341174393E1,-3.086277366E0,2.368434824E1
1.100922229E1,-2.410170544E0,-1.187625866E1,2.281787031E0,1.233130139E1
1.101917629E1,-2.030083985E0,-4.602853902E0,3.782366170E0,6.293949386E0
1.102913129E1,-1.647840096E0,-8.237604189E-1,2.432151982E0,3.051118069E0
1.103908629E1,-1.267585137E0,1.867131733E0,2.056049716E0,3.052915560E0
1.104904129E1,-9.092709777E-1,3.770324414E0,1.838386967E0,4.292060873E0
1.105899629E1,-3.317797869E-1,5.020878950E0,1.739940759E0,5.324161634E0
1.106895129E1,4.555185646E-1,5.863970849E0,1.686309074E0,6.118601930E0
1.107890629E1,1.210892069E0,6.378718200E0,1.785802810E0,6.733750601E0
1.108886129E1,1.903473494E0,6.331392590E0,2.413287402E0,7.038018156E0
1.109881629E1,2.524390932E0,5.707183608E0,3.193052494E0,7.009998470E0
1.110877129E1,2.728605523E0,4.395849019E0,4.128436259E0,6.619120988E0
1.111872629E1,1.940991714E0,2.698092413E0,4.343547722E0,5.469328872E0
1.112868129E1,1.049711888E0,1.337717811E0,3.768149250E0,4.134045568E0
1.113863629E1,2.843421303E-1,4.669194657E-1,3.048972422E0,3.097595368E0
1.114859129E1,-3.966593224E-1,4.913736910E-1,2.674136370E0,2.747688492E0
1.115854629E1,-6.344685066E-1,1.974541576E0,2.924104840E0,3.584934286E0
1.116850129E1,-6.267179491E-1,3.924662256E0,3.057810781E0,5.014574357E0
1.117845629E1,-8.479399712E-1,5.467137864E0,2.375770497E0,6.021036794E0
1.118841129E1,-1.194840073E0,6.938380353E0,1.405923827E0,7.179511580E0
1.119836629E1,-1.527768546E0,8.275525137E0,3.498377430E-1,8.422634948E0
1.120832129E1,-1.795974042E0,9.533451843E0,-8.913554013E-1,9.742009097E0
1.121827629E1,-1.902503002E0,1.082779442E1,-2.647302328E0,1.130791136E1
1.122823129E1,-1.973877332E0,1.223519701E1,-4.295898761E0,1.311682064E1
1.123818629E1,-1.851349221E0,1.264728421E1,-5.072249079E0,1.375169090E1
1.124814029E1,-1.684914951E0,1.152990937E1,-5.227103230E0,1.277107500E1
1.125809529E1,-1.679676577E0,8.267136721E0,-2.834932170E0,8.899646250E0
1.126805029E1,-4.260680762E-1,5.173826909E0,-5.212538400E-1,5.217444246E0
1.127800529E1,1.700468545E0,1.955574962E0,2.404722986E-1,2.602632059E0
1.128796029E1,4.002094594E0,-3.491794635E0,-1.137149251E0,5.431620323E0
1.129791529E1,6.297244851E0,-1.250173298E1,-3.999726764E0,1.455838021E1
1.130787029E1,8.295053667E0,-2.132022062E1,-5.326426374E0,2.348894507E1
1.131782529E1,9.562342350E0,-2.408421583E1,-3.480339940E0,2.614575701E1
1.132778029E1,8.251639845E0,-1.971926701E1,-7.683098111E-1,2.138993575E1
1.133773529E1,4.048981954E0,-1.475080835E1,2.745694596E-1,1.529888853E1
1.134769029E1,1.668615838E0,-1.181690475E1,-4.775210524E-1,1.194368213E1
1.135764529E1,2.300554108E-1,-1.085095758E1,-1.977600254E0,1.103209449E1
1.136760029E1,-1.064299156E0,-1.124492660E1,-3.831499738E0,1.192734242E1
1.137755529E1,-2.482855235E0,-1.257604057E1,-5.389162905E0,1.390555440E1
1.138751029E1,-3.844286137E0,-1.368331493E1,-6.214397991E0,1.551226566E1
1.139746529E1,-4.841826097E0,-1.355800442E1,-5.957874793E0,1.558072642E1
1.140742029E1,-5.135352230E0,-1.186943379E1,-4.773330644E0,1.378549914E1
1.141737529E1,-4.507459502E0,-9.610191286E0,-3.601917879E0,1.120922745E1
1.142733029E1,-3.157322205E0,-7.790971638E0,-3.012109821E0,8.929766410E0
1.143728529E1,-1.920039679E0,-6.661633390E0,-2.745970877E0,7.456826929E0
1.144724029E1,-8.924944389E-1,-5.808827512E0,-2.422163476E0,6.356563481E0
1.145719529E1,-1.367255898E-1,-4.890328751E0,-1.965965757E0,5.272478595E0
1.146715029E1,2.638959521E-1,-3.710268247E0,-1.408631380E0,3.977433079E0
1.147710429E1,3.248229890E-1,-2.332783522E0,-8.980703437E-1,2.520698173E0
1.148705929E1,2.545259352E-1,-8.366734099E-1,-5.033667688E-1,1.009051015E0
1.149701429E1,1.515520091E-1,7.074762565E-1,-3.120565438E-1,7.879530135E-1
1.150696929E1,5.028941676E-2,2.225043311E0,-1.441074072E-1,2.230272115E0
1.151692429E1,-4.884259634E-2,3.741321639E0,1.712311788E-1,3.745556477E0
1.152687929E1,-1.277452167E-1,5.222564621E0,6.366938107E-1,5.262782446E0
1.153683429E1,-1.414431234E-1,6.646815961E0,1.192591088E0,6.754438695E0
1.154678929E1,-2.334216528E-1,7.875264514E0,1.361987264E0,7.995579162E0
1.155674429E1,-4.521412128E-1,8.841048539E0,1.069907221E0,8.917021498E0
1.156669929E1,-6.815325992E-1,9.560625023E0,6.829710873E-1,9.609187636E0
1.157665429E1,-8.440316923E-1,1.005349443E1,3.399828458E-1,1.009458905E1
1.158660929E1,-9.088944170E-1,1.026749317E1,9.617854793E-2,1.030809174E1
1.159656429E1,-9.213609731E-1,1.018704016E1,-4.258642277E-2,1.022870993E1
1.160651929E1,-9.475233163E-1,1.007838252E1,-1.454717088E-1,1.012387064E1
1.161647429E1,-9.448436105E-1,1.002568507E1,-1.551435882E-1,1.007130380E1
1.162642929E1,-9.227687634E-1,1.001665814E1,-1.544401316E-1,1.006025816E1
1.163638429E1,-9.018331001E-1,1.003316717E1,-2.301147966E-1,1.007624430E1
1.164633929E1,-8.234843572E-1,1.005604850E1,-2.526253708E-1,1.009287161E1
1.165629429E1,-6.824508313E-1,9.936592219E0,-2.948025068E-1,9.964362126E0
1.166624929E1,-5.830175404E-1,9.566137778E0,-4.881700015E-1,9.596312385E0
1.167620429E1,-5.314259487E-1,9.393313964E0,-6.603542034E-1,9.431480713E0
1.168615929E1,-3.727841176E-1,9.213836018E0,-6.686191696E-1,9.245582392E0
1.169611429E1,-4.336039312E-2,6.709792812E0,-6.101680630E-1,6.737618628E0
1.170606829E1,9.927590577E-1,-2.582087163E0,-1.120441709E0,2.984649776E0
1.171602329E1,2.336470191E0,-1.231367951E1,-3.047431388E0,1.289855163E1
1.172597829E1,3.562332229E0,-2.203907264E1,-4.319822937E0,2.273921291E1
1.173593329E1,3.424042363E0,-1.887280770E1,-2.509209806E0,1.934432915E1
1.174588829E1,2.205046126E0,-8.538009571E0,-1.501674322E0,8.945102661E0
1.175584329E1,1.126932849E0,-2.758935031E0,-1.436890097E0,3.308527361E0
1.176579829E1,4.935420578E-1,-3.974703312E-1,-1.341812031E0,1.483922489E0
1.177575329E1,-1.267011964E-1,8.722186339E-1,-7.970199323E-1,1.188301019E0
1.178570829E1,-6.142564362E-1,1.867146935E0,-2.902849480E-1,1.986910667E0
1.179566329E1,-9.946340404E-1,2.591361431E0,1.992322520E-1,2.782830292E0
1.180561829E1,-1.255872579E0,2.948635663E0,1.057520406E0,3.374910017E0
1.181557329E1,-1.161498884E0,2.847130339E0,2.697665566E0,4.090553793E0
1.182552829E1,-6.416518841E-1,2.439727927E0,3.422399880E0,4.251683247E0
1.183548329E1,-2.050931355E-1,1.906619149E0,4.096062565E0,4.522719128E0
1.184543829E1,-6.633454196E-2,1.426497840E0,5.429791113E0,5.614439232E0
1.185539379E1,-6.445327342E-2,1.180955713E0,6.317980832E0,6.427728402E0
1.186534879E1,-1.581602398E-1,1.112365535E0,6.197997136E0,6.299011053E0
1.187530379E1,-1.858743609E-1,1.314248257E0,5.598045913E0,5.753252628E0
1.188525879E1,-2.510083234E-1,1.871920018E0,4.887808894E0,5.240015793E0
1.189521379E1,-3.615671115E-1,2.605659043E0,4.157460668E0,4.919824086E0
1.190516879E1,-5.424359635E-1,3.561064845E0,3.677109564E0,5.147480388E0
1.191512379E1,-8.220503276E-1,4.760123538E0,3.543522321E0,5.990917565E0
1.192507779E1,-1.241249278E0,5.793432378E0,3.319772182E0,6.791571676E0
1.193503279E1,-1.635191399E0,6.620062611E0,2.312015089E0,7.200312052E0
1.194498779E1,-1.865204198E0,7.717029503E0,8.090736750E-1,7.980359094E0
1.195494279E1,-1.946565280E0,9.138072476E0,-8.448007473E-1,9.381213848E0
1.196489779E1,-2.150370567E0,1.071651723E1,-2.483559532E0,1.120874226E1
1.197485279E1,-2.207057276E0,1.209145257E1,-2.882303387E0,1.262465841E1
1.198480779E1,-2.179982767E0,1.142864144E1,-2.531020212E0,1.190681458E1
1.199476279E1,-1.879426381E0,8.045307392E0,-2.667005399E0,8.681712524E0
1.200471779E1,-8.003198815E-1,4.235256411E0,-4.008028933E0,5.885762882E0
1.201467279E1,8.859275772E-1,-3.156549203E-1,-6.662856628E0,6.728905122E0
1.202462779E1,2.932912501E0,-5.903690985E0,-9.375451305E0,1.146100476E1
1.203458279E1,5.035478278E0,-1.301860579E1,-1.082790552E1,1.766589019E1
1.204453779E1,6.675313536E0,-1.935364295E1,-9.911686589E0,2.274565535E1
1.205449279E1,7.127906154E0,-2.115086655E1,-6.393712215E0,2.321735897E1
1.206444779E1,5.945756439E0,-1.788433473E1,-2.479980744E0,1.900925440E1
1.207440279E1,3.817989746E0,-1.492446831E1,-4.350401536E-1,1.541123162E1
1.208435779E1,1.784227424E0,-1.374551527E1,1.020395557E0,1.389834036E1
1.209431279E1,4.761609900E-1,-1.387123392E1,1.992648356E0,1.402171556E1
1.210426779E1,-8.223341368E-1,-1.440072034E1,4.025094909E0,1.497525856E1
1.211422279E1,-1.622503526E0,-1.392057623E1,3.681321605E0,1.449024117E1
1.212417779E1,-1.015512109E0,-1.225223229E1,-2.046614941E0,1.246343025E1
1.213413179E1,-1.101947916E0,-9.809158001E0,-6.370665999E0,1.174815965E1
1.214408679E1,-1.959521687E0,-6.927069499E0,-5.988582616E0,9.364141115E0
1.215404179E1,-2.258292918E0,-4.804636636E0,-4.317358920E0,6.842807038E0
1.216399679E1,-2.111184866E0,-3.793465939E0,-3.149309766E0,5.363360642E0
1.217395179E1,-1.647556944E0,-3.315513362E0,-2.075644320E0,4.244451918E0
1.218390679E1,-1.028698676E0,-3.166417549E0,-1.392524056E0,3.608814807E0
1.219386179E1,-5.126914698E-1,-2.892347442E0,-9.509090003E-1,3.087515861E0
1.220381679E1,-1.132984279E-1,-2.263918524E0,-5.706433703E-1,2.337476732E0
1.221377179E1,1.745540784E-1,-1.274308850E0,-1.910457847E-1,1.300319447E0
1.222372679E1,3.840912440E-1,-2.559852540E-2,2.090753818E-1,4.380569409E-1
1.223368179E1,4.626178884E-1,1.346826603E0,5.335467339E-1,1.520733155E0
1.224363679E1,4.042832145E-1,2.693581286E0,6.885866801E-1,2.809444194E0
1.225359179E1,2.167770419E-1,3.915313143E0,7.633927412E-1,3.994926503E0
1.226354679E1,-2.780336425E-2,4.949499065E0,8.476020022E-1,5.021627543E0
1.227350179E1,-2.612285985E-1,5.857003891E0,8.473668710E-1,5.923745908E0
1.228345679E1,-5.063606163E-1,6.653546106E0,8.493080735E-1,6.726618843E0
1.229341179E1,-7.544940830E-1,7.331652383E0,8.524234700E-1,7.419502258E0
1.230336679E1,-9.836344045E-1,8.002219260E0,8.946638290E-1,8.111933993E0
1.231332179E1,-1.164913877E0,8.662492699E0,9.294828288E-1,8.789752126E0
1.232327679E1,-1.277424831E0,9.231164827E0,9.107471073E-1,9.363529172E0
1.233323179E1,-1.334749472E0,9.625301660E0,9.119223976E-1,9.760101980E0
1.234318679E1,-1.407655773E0,9.830867543E0,1.073270466E0,9.988961954E0
1.235314079E1,-1.475583169E0,9.994800081E0,1.206615050E0,1.017493461E1
1.236309579E1,-1.472024700E0,1.002077926E1,1.262260662E0,1.020667310E1
1.237305079E1,-1.459908392E0,1.000131388E1,1.235892059E0,1.018258518E1
1.238300579E1,-1.399299517E0,9.868612490E0,1.163204151E0,1.003496864E1
1.239296079E1,-1.278248119E0,9.424314147E0,9.877993762E-1,9.561765685E0
1.240291579E1,-1.179017508E0,8.848653427E0,6.642495453E-1,8.951534909E0
1.241287079E1,-1.233702130E0,7.163616854E0,4.192079401E-1,7.281151191E0
1.242282579E1,-1.135058286E0,4.722000861E0,3.402261128E-2,4.856625061E0
1.243278079E1,-1.007425409E0,1.161962788E0,-8.344269097E-1,1.749666180E0
1.244273579E1,-1.557916059E-1,-5.125984406E0,-2.426182852E0,5.673301542E0
1.245269079E1,1.114335023E0,-1.411211932E1,-5.410765443E0,1.515486842E1
1.246264579E1,1.852003816E0,-2.322376998E1,-7.190835643E0,2.438199187E1
1.247260079E1,2.425612310E0,-2.474684804E1,-5.200500737E0,2.540345037E1
1.248255579E1,2.001615208E0,-1.510870239E1,-1.604016384E0,1.532488890E1
1.249251079E1,8.876666853E-1,-6.105614052E0,3.991133988E-1,6.182698974E0
1.250246579E1,2.158872418E-1,-1.486541144E0,3.464664724E0,3.776283030E0
1.251242079E1,-6.388986495E-1,1.783839900E0,8.917443581E0,9.116527644E0
1.252237579E1,-1.147043909E0,3.736366709E0,6.641812499E0,7.706479039E0
1.253233079E1,-1.206550146E0,4.994198105E0,4.698031955E0,6.961988381E0
1.254228579E1,-1.166815538E0,5.884786937E0,4.139381078E0,7.288803159E0
1.255223979E1,-1.140898339E0,6.303038272E0,3.750808454E0,7.422836691E0
1.256219479E1,-9.571069027E-1,6.560334472E0,3.503104027E0,7.498385148E0
1.257214979E1,-4.179268152E-1,6.293027254E0,3.373544931E0,7.152458336E0
1.258210479E1,2.416105322E-1,4.996890748E0,4.115244356E0,6.477849096E0
1.259205979E1,1.028439133E0,3.778028705E0,5.799190131E0,6.997270477E0
1.260201479E1,1.843879549E0,3.288792756E0,6.800380801E0,7.775681875E0
1.261196979E1,3.064490055E0,3.563521260E0,5.760229549E0,7.434381449E0
1.262192479E1,3.298887097E0,3.866050935E0,3.159778036E0,5.984413350E0
1.263187979E1,2.036007214E0,3.947552351E0,7.282183769E-1,4.500977332E0
1.264183479E1,3.145134708E-1,4.382209219E0,-3.490428141E-1,4.407324273E0
1.265178979E1,-5.818024159E-1,5.466737915E0,-5.129433386E-1,5.521487874E0
1.266174479E1,-7.971960796E-1,7.091183885E0,-7.720815575E-1,7.177500987E0
1.267169979E1,-1.013402872E0,8.281581683E0,-9.043970311E-1,8.392229414E0
1.268165479E1,-1.161349195E0,8.916641927E0,-9.883665562E-1,9.046109864E0
1.269160979E1,-1.498723525E0,8.888709778E0,-1.975699325E0,9.228148327E0
1.270156479E1,-2.072742639E0,7.678525003E0,-2.762259758E0,8.419387581E0
1.271151979E1,-2.232916879E0,5.201850275E0,-3.166530401E0,6.486299318E0
1.272147479E1,-1.796513740E0,1.568197510E0,-3.782162687E0,4.471181011E0
1.273142979E1,-6.241114066E-1,-2.255421935E0,-4.446028655E0,5.024302335E0
1.274138479E1,1.016143169E0,-5.812822915E0,-6.099539380E0,8.486803746E0
1.275133979E1,3.128655938E0,-8.440361069E0,-7.872085383E0,1.195817341E1
1.276129379E1,4.604154907E0,-9.634952490E0,-8.736534237E0,1.379701353E1
1.277124879E1,4.946527510E0,-9.723464132E0,-7.713717055E0,1.336096254E1
1.278120379E1,4.362170811E0,-9.457886521E0,-4.719816049E0,1.143489463E1
1.279115879E1,3.467478404E0,-9.466750900E0,-1.464422004E0,1.018760575E1
1.280111379E1,2.510582147E0,-9.783440192E0,1.128453856E0,1.016327373E1
1.281106879E1,1.583534757E0,-1.070211905E1,1.635435812E0,1.094155312E1
1.282102379E1,8.971135200E-1,-1.206508514E1,9.137654400E-1,1.213285042E1
1.283097879E1,1.570823787E-1,-1.338020697E1,-8.390754461E-3,1.338113163E1
1.284093379E1,-5.438566907E-1,-1.437228534E1,-1.372642061E0,1.444792414E1
1.285088879E1,-1.070181602E0,-1.473684520E1,-2.968678164E0,1.507093047E1
1.286084304E1,-1.440373575E0,-1.407592973E1,-3.809474446E0,1.465327846E1
1.287079804E1,-2.128523176E0,-1.199130029E1,-2.261071515E0,1.238686151E1
1.288075304E1,-3.252453480E0,-9.486730835E0,5.517795217E-1,1.004395222E1
1.289070804E1,-3.054286664E0,-6.830577577E0,5.482173979E-1,7.502399574E0
1.290066304E1,-1.995945601E0,-4.841178226E0,-6.867437840E-2,5.236938192E0
1.291061804E1,-1.219192922E0,-3.255710379E0,-5.409688970E-1,3.518341769E0
1.292057304E1,-8.902830950E-1,-1.641315773E0,-8.962691090E-1,2.071188009E0
1.293052804E1,-5.092419780E-1,-1.630583793E-1,-8.821963227E-1,1.031593805E0
1.294048304E1,-2.403271414E-1,8.770267993E-1,-6.311788630E-1,1.106941687E0
1.295043804E1,-1.134093057E-1,1.619518522E0,-2.992467561E-1,1.650833285E0
1.296039204E1,-3.099170476E-2,2.351320365E0,-5.249922574E-3,2.351530460E0
1.297034704E1,-3.517787263E-2,3.186667627E0,3.263623416E-1,3.203529370E0
1.298030204E1,-9.792697504E-2,4.152494920E0,5.691666560E-1,4.192464006E0
1.299025704E1,-2.223162554E-1,5.183018147E0,6.908942838E-1,5.233587349E0
1.300021204E1,-4.064857145E-1,6.311038433E0,7.760506475E-1,6.371553291E0
1.301016704E1,-6.127215421E-1,7.330245543E0,7.555948213E-1,7.394514923E0
1.302012204E1,-8.057699981E-1,8.146796345E0,5.341736285E-1,8.203956207E0
1.303007704E1,-1.012685272E0,8.822789438E0,2.543492762E-1,8.884359205E0
1.304003204E1,-1.199370934E0,9.324914989E0,2.146757718E-2,9.401754680E0
1.304998704E1,-1.311020886E0,9.656526377E0,-8.333448093E-2,9.745471875E0
1.305994204E1,-1.379917605E0,9.858418454E0,-7.283642650E-2,9.954792421E0
1.306989704E1,-1.418988700E0,9.954035633E0,-3.608199835E-2,1.005473303E1
1.307985204E1,-1.436658985E0,9.954978204E0,-1.150028547E-2,1.005811674E1
1.308980704E1,-1.456728091E0,9.808898385E0,3.417581518E-2,9.916537311E0
1.309976204E1,-1.357735900E0,9.206925779E0,7.831526756E-2,9.306828802E0
1.310971704E1,-1.162672639E0,8.196928033E0,4.252504071E-2,8.279084806E0
1.311967204E1,-9.222672915E-1,6.411882437E0,-3.357003450E-1,6.486563657E0
1.312962704E1,-4.240441722E-1,3.728008699E0,-9.636170465E-1,3.873812093E0
1.313958204E1,4.328358994E-1,-1.079846245E0,-2.066613003E0,2.371561539E0
1.314953604E1,1.348114453E0,-7.770385931E0,-4.248218518E0,8.957883158E0
1.315949104E1,1.445848616E0,-1.412616901E1,-6.047112075E0,1.543394615E1
1.316944604E1,1.902652545E-1,-1.738231501E1,-6.086297776E0,1.841803726E1
1.317940104E1,-1.099436464E0,-1.477156246E1,-3.998792086E0,1.534269064E1
1.318935604E1,-8.764530413E-1,-7.022496058E0,-8.394555151E-1,7.126591498E0
1.319931104E1,-4.091667359E-1,-1.645014721E0,1.770625777E0,2.451245906E0
1.320926604E1,-4.937722919E-1,1.070952630E0,3.978176558E0,4.149293836E0
1.321922104E1,-7.902612819E-1,2.632150438E0,3.437673976E0,4.401173843E0
1.322917604E1,-9.534110970E-1,3.750455575E0,2.477224367E0,4.594730711E0
1.323913104E1,-1.236510548E0,4.587879183E0,2.073552186E0,5.184323717E0
1.324908604E1,-1.831230121E0,5.173072618E0,2.309718157E0,5.953896374E0
1.325904104E1,-2.416679226E0,5.642623916E0,2.804965482E0,6.748879499E0
1.326899604E1,-2.863372149E0,6.196932358E0,3.317733550E0,7.590008342E0
1.327895104E1,-3.241219810E0,6.633698902E0,3.685558790E0,8.251957984E0
1.328890604E1,-3.433140630E0,6.684613532E0,3.747421162E0,8.397242287E0
1.329886104E1,-2.874816905E0,6.065246630E0,3.506462668E0,7.572784782E0
1.330881604E1,-1.506615951E0,5.143796779E0,3.186172367E0,6.235401453E0
1.331877104E1,-5.306083618E-1,4.401605018E0,2.458659165E0,5.069583500E0
1.332872604E1,9.148758262E-2,3.872816749E0,1.553769213E0,4.173880486E0
1.333868004E1,6.793464714E-1,3.727932685E0,7.579991233E-1,3.864395995E0
1.334863504E1,1.400293251E0,4.062789862E0,3.012263310E-1,4.307878823E0
1.335859004E1,2.162121277E0,4.705496510E0,1.992897740E-1,5.182295075E0
1.336854504E1,2.747720948E0,5.332444913E0,1.965471375E-1,6.001963840E0
1.337850004E1,3.050638586E0,5.699332552E0,-1.370642897E-1,6.465877662E0
1.338845504E1,3.105076164E0,5.622915291E0,-1.122376553E0,6.520613735E0
1.339841004E1,2.919929635E0,5.245395074E0,-1.423372211E0,6.169776901E0
1.340836504E1,2.762147199E0,4.773198497E0,-1.172822821E0,5.638119758E0
1.341832004E1,2.635861959E0,3.800288470E0,-1.668441298E0,4.916671342E0
1.342827504E1,2.609762911E0,1.941137602E0,-2.259179064E0,3.960147433E0
1.343823004E1,3.269086178E0,4.699606025E-1,-2.939009392E0,4.421036486E0
1.344818504E1,4.040829474E0,-1.343315350E0,-3.655497962E0,5.612081995E0
1.345814004E1,4.559333953E0,-3.596424712E0,-4.095286347E0,7.105854422E0
1.346809504E1,4.895450912E0,-6.571251808E0,-4.420337743E0,9.310541108E0
1.347805004E1,4.724175733E0,-1.064783116E1,-4.551146097E0,1.250628144E1
1.348800504E1,3.765180618E0,-1.453891227E1,-4.104655341E0,1.556935293E1
1.349796004E1,2.369551545E0,-1.719408144E1,-2.532227663E0,1.754033603E1
1.350791504E1,1.002350465E0,-1.789799733E1,-4.752783528E-1,1.793234241E1
1.351787004E1,-1.482505980E-1,-1.708882454E1,5.105595750E-1,1.709709255E1
1.352782504E1,-1.122596700E0,-1.512187967E1,-2.656963098E-1,1.516581889E1
1.353777904E1,-1.602678979E0,-1.278036450E1,-2.090991215E0,1.304908200E1
1.354773404E1,-1.940508296E0,-1.117070088E1,-3.545421789E0,1.187940008E1
1.355768904E1,-2.551976341E0,-1.014796906E1,-3.719827859E0,1.110544815E1
1.356764404E1,-3.413839556E0,-9.279948147E0,-2.355572753E0,1.016466729E1
1.357759904E1,-4.390362577E0,-8.410836139E0,-4.169892141E-1,9.496911504E0
1.358755404E1,-4.702766445E0,-7.189544578E0,4.105172235E-1,8.600819023E0
1.359750904E1,-3.942471705E0,-6.183948031E0,5.758528009E-1,7.356351191E0
1.360746404E1,-2.905360420E0,-5.241922413E0,3.550651538E-1,6.003743917E0
1.361741904E1,-2.199150378E0,-4.160227863E0,8.351461172E-2,4.706456517E0
1.362737404E1,-1.679559194E0,-3.149860573E0,6.675912291E-2,3.570293755E0
1.363732904E1,-1.292024159E0,-2.074125506E0,2.415902862E-1,2.455542488E0
1.364728404E1,-1.035985257E0,-9.299727523E-1,4.265403485E-1,1.456039643E0
1.365723904E1,-8.401497989E-1,2.193237966E-1,5.725672504E-1,1.040090318E0
1.366719404E1,-6.473259491E-1,1.387658880E0,6.204427904E-1,1.652143247E0
1.367714904E1,-5.052106883E-1,2.499634990E0,6.021734574E-1,2.620310248E0
1.368710404E1,-4.439329646E-1,3.589117447E0,5.593997593E-1,3.659476549E0
1.369705904E1,-4.442630399E-1,4.674927267E0,4.972064348E-1,4.722237694E0
1.370701304E1,-4.631176060E-1,5.719156952E0,3.991522828E-1,5.751743797E0
1.371696804E1,-5.078271711E-1,6.694046845E0,3.200005710E-1,6.720904104E0
1.372692304E1,-5.891080002E-1,7.515379500E0,2.719770965E-1,7.543338042E0
1.373687804E1,-6.837465012E-1,8.117305913E0,2.084601085E-1,8.148718929E0
1.374683304E1,-8.117364970E-1,8.611348858E0,1.573077158E-1,8.650953185E0
1.375678804E1,-9.316628900E-1,9.044142804E0,1.169992769E-1,9.092755557E0
1.376674304E1,-1.009933280E0,9.386748126E0,1.096901842E-1,9.441559063E0
1.377669804E1,-1.064895353E0,9.613283293E0,1.136277723E-1,9.672751887E0
1.378665304E1,-1.077963588E0,9.717878872E0,1.100270569E-1,9.778102127E0
1.379660804E1,-9.445875755E-1,9.602623234E0,1.845615149E-2,9.648987475E0
1.380656304E1,-6.846267995E-1,9.127493109E0,-2.098904836E-1,9.155539215E0
1.381651804E1,-4.119271334E-1,8.274418259E0,-4.904644489E-1,8.299170854E0
1.382647304E1,-1.687718399E-1,6.943010763E0,-9.498152786E-1,7.009709798E0
1.383642804E1,2.424580130E-1,4.775245022E0,-1.671326607E0,5.065084751E0
1.384638304E1,9.612006846E-1,1.101346457E0,-2.481310401E0,2.879890984E0
1.385633804E1,1.917043273E0,-4.437798699E0,-3.379214099E0,5.898152264E0
1.386629350E1,2.483121868E0,-1.030035686E1,-4.248772250E0,1.141557319E1
1.387624850E1,1.575095178E0,-1.330786755E1,-3.940742099E0,1.396816781E1
1.388620350E1,-8.402536601E-2,-1.056087955E1,-1.830000159E0,1.071858842E1
1.389615750E1,-5.743874887E-1,-3.753292059E0,7.132714319E-1,3.863402439E0
1.390611250E1,-7.311814535E-1,9.580206764E-1,2.458364757E0,2.737880058E0
1.391606750E1,-1.131126326E0,3.304346935E0,3.393706423E0,4.869845862E0
1.392602250E1,-1.311821808E0,4.864026221E0,3.464307751E0,6.114004885E0
1.393597750E1,-1.243521506E0,5.862785034E0,2.731926742E0,6.586502699E0
1.394593250E1,-1.184116133E0,6.600727623E0,1.860391940E0,6.959367380E0
1.395588750E1,-1.200545494E0,7.350247698E0,1.659243043E0,7.630238410E0
1.396584250E1,-1.070973388E0,7.948307347E0,1.468036753E0,8.153386143E0
1.397579750E1,-8.664186345E-1,8.137109848E0,1.531727549E0,8.325228358E0
1.398575250E1,-5.233812764E-1,8.086720297E0,1.653969732E0,8.270706681E0
1.399570750E1,-8.035492256E-2,8.167783172E0,1.840950532E0,8.373066207E0
1.400566250E1,3.004130564E-1,8.267163618E0,1.675829840E0,8.440654474E0
1.401561750E1,4.774575370E-1,7.756373663E0,1.161008522E0,7.857304811E0
1.402557250E1,1.368152715E-1,6.268299964E0,5.169915122E-1,6.291071696E0
1.403552750E1,-3.384319449E-1,4.752468363E0,3.187317252E-2,4.764609913E0
1.404548250E1,-6.664480253E-1,3.218476480E0,-1.213045818E-1,3.288990517E0
1.405543750E1,-6.661735716E-1,1.505286148E0,-3.238533014E-1,1.677663427E0
1.406539150E1,-3.861295833E-1,-7.740795511E-1,-4.922349858E-1,9.952841242E-1
1.407534650E1,2.226664305E-1,-3.393158539E0,-6.744482589E-1,3.466696650E0
1.408530150E1,9.938679821E-1,-5.868562667E0,-1.076968538E0,6.048773643E0
1.409525650E1,1.673183390E0,-8.009859232E0,-2.015860341E0,8.427400577E0
1.410521150E1,1.937571824E0,-9.900478646E0,-3.278543464E0,1.060766276E1
1.411516650E1,1.495019314E0,-1.239876117E1,-4.326498703E0,1.321676785E1
1.412512150E1,5.771977336E-1,-1.578287466E1,-4.883788933E0,1.653129408E1
1.413507650E1,-4.098556110E-1,-1.879648750E1,-4.671500798E0,1.937263131E1
1.414503150E1,-1.381580845E0,-1.971299880E1,-4.351984085E0,2.023489196E1
1.415498650E1,-1.689969577E0,-1.687200979E1,-4.756781854E0,1.761101034E1
1.416494150E1,-1.157110768E0,-1.284096738E1,-5.316310691E0,1.394605708E1
1.417489650E1,-1.066740077E-1,-1.036305071E1,-4.893564893E0,1.146085410E1
1.418485150E1,1.189356993E0,-8.737499612E0,-3.848414856E0,9.621266363E0
1.419480650E1,2.362255535E0,-7.307040283E0,-2.765276921E0,8.162098098E0
1.420476150E1,3.115870124E0,-6.042041370E0,-1.679971715E0,7.002657746E0
1.421471650E1,3.632390643E0,-4.842765160E0,-5.853989652E-1,6.081885245E0
1.422467150E1,4.195128139E0,-3.679377406E0,9.093800282E-1,5.653661666E0
1.423462550E1,4.972112587E0,-2.406062583E0,3.371565649E0,6.471359645E0
1.424458050E1,5.189838340E0,-1.315810048E0,3.507923595E0,6.400883222E0
1.425453550E1,5.011496508E0,-2.400077373E-1,3.285846637E0,5.997456885E0
1.426449050E1,4.507654215E0,8.834242380E-1,3.285557492E0,5.647501477E0
1.427444550E1,4.004116853E0,2.113006566E0,2.925001510E0,5.390118956E0
1.428440050E1,3.497828377E0,3.378558626E0,2.178733071E0,5.328821590E0
1.429435550E1,2.803944558E0,4.624548826E0,1.643601741E0,5.652431655E0
1.430431050E1,1.989904550E0,5.776761966E0,1.180268373E0,6.222839574E0
1.431426550E1,1.133437804E0,6.766697330E0,7.753498587E-1,6.904639123E0
1.432422050E1,3.489226538E-1,7.608136221E0,6.769172457E-1,7.646155945E0
1.433417550E1,-3.058391263E-1,8.365673999E0,8.528726824E-1,8.414596297E0
1.434413050E1,-8.067304033E-1,9.017215206E0,1.135419352E0,9.124152625E0
1.435408550E1,-1.165111659E0,9.493043489E0,1.346852039E0,9.658642259E0
1.436404050E1,-1.374134124E0,9.764325060E0,1.377613363E0,9.956309911E0
1.437399550E1,-1.470314097E0,9.842386558E0,1.269824767E0,1.003229045E1
1.438395050E1,-1.531901065E0,9.865780098E0,1.112940316E0,1.004584362E1
1.439390550E1,-1.564188659E0,9.817008473E0,9.498497772E-1,9.986118170E0
1.440385950E1,-1.607929487E0,9.551683461E0,7.105291609E-1,9.712103061E0
1.441381450E1,-1.765489583E0,8.433402883E0,3.023315278E-1,8.621522024E0
1.442376950E1,-1.888828996E0,5.405511135E0,-1.605760901E-1,5.728264160E0
1.443372450E1,-1.957121405E0,1.592728919E-1,-1.175773326E0,2.288697219E0
1.444367950E1,-2.038190857E0,-7.301574306E0,-2.986689928E0,8.147854076E0
1.445363450E1,-2.324241032E0,-1.397903435E1,-4.754131311E0,1.494714897E1
1.446358950E1,-3.517976713E0,-1.488725196E1,-4.878550705E0,1.605635974E1
1.447354450E1,-4.480555294E0,-9.226173059E0,-3.702370412E0,1.090436572E1
1.448349950E1,-3.958098389E0,-2.402695171E0,-2.411130949E0,5.220444368E0
1.449345450E1,-3.268060284E0,2.013072388E0,-1.244274627E0,4.034959455E0
1.450340950E1,-2.955106777E0,4.292188995E0,-8.289141548E-1,5.276612655E0
1.451336450E1,-2.823045950E0,5.444448913E0,-8.022496819E-1,6.185080190E0
1.452331950E1,-2.764016553E0,6.062445813E0,-6.712952940E-1,6.696541952E0
1.453327450E1,-2.702335445E0,6.446789730E0,-3.593897545E-1,6.999491101E0
1.454322950E1,-2.589643227E0,6.593465381E0,-4.576849580E-2,7.083934819E0
1.455318450E1,-2.309130804E0,6.666046869E0,3.480180895E-1,7.063241643E0
1.456313950E1,-1.949500583E0,6.754745037E0,7.797870183E-1,7.073556448E0
1.457309350E1,-1.633873436E0,6.950564781E0,1.224524779E0,7.244263531E0
1.458304850E1,-1.409471625E0,7.361571416E0,1.750156722E0,7.696907985E0
1.459300350E1,-1.240023994E0,7.793113473E0,2.330396981E0,8.228063393E0
1.460295850E1,-1.123760150E0,8.154286628E0,2.706457732E0,8.664879731E0
1.461291350E1,-1.113782388E0,8.402240732E0,2.742194160E0,8.908298902E0
1.462286850E1,-1.132665971E0,8.504462340E0,2.477392474E0,8.930077568E0
1.463282350E1,-1.181214160E0,8.034044486E0,1.947005868E0,8.350567019E0
1.464277850E1,-1.205295333E0,6.765831358E0,1.282959513E0,6.991079739E0
1.465273350E1,-1.063893360E0,4.965208780E0,4.174575761E-1,5.095040543E0
1.466268850E1,-1.038093909E0,2.235927903E0,-1.210783238E0,2.746453823E0
1.467264350E1,-1.153528179E0,-2.543251711E0,-4.090584894E0,4.952942690E0
1.468259850E1,-1.356445127E0,-1.077650499E1,-7.645382985E0,1.328250293E1
1.469255350E1,-1.176856742E0,-2.146985789E1,-1.016344314E1,2.378308992E1
1.470250850E1,1.075293091E-1,-3.113983812E1,-9.143731411E0,3.245472084E1
1.471246350E1,2.158227324E0,-3.561456023E1,-4.334189253E0,3.594217637E1
1.472241850E1,4.072692121E0,-3.161855201E1,1.653958037E-1,3.188019774E1
1.473237250E1,3.612860943E0,-2.147100628E1,7.628704387E-1,2.178620771E1
1.474232750E1,1.943048619E0,-1.317595437E1,-1.633331984E-1,1.331945529E1
1.475228250E1,1.053412299E0,-8.755885012E0,-1.005316173E0,8.876139951E0
1.476223750E1,4.448560207E-1,-6.133046849E0,-1.625539985E0,6.360388414E0
1.477219250E1,-1.312861443E-1,-4.580844982E0,-1.712488081E0,4.892237957E0
1.478214750E1,-6.148011044E-1,-3.598790495E0,-1.034343213E0,3.794619785E0
1.479210250E1,-9.177720252E-1,-2.971952021E0,8.807894826E-2,3.111681572E0
1.480205750E1,-1.021391484E0,-2.698129835E0,1.150383254E0,3.105885832E0
1.481201250E1,-8.925771770E-1,-2.326629912E0,2.326881927E0,3.409439876E0
1.482196750E1,-5.234134360E-1,-1.413081404E0,3.297607434E0,3.625600015E0
1.483192250E1,-1.775026830E-1,-2.417712575E-1,3.489776761E0,3.502642200E0
1.484187750E1,1.093268529E-1,1.060847472E0,3.548298619E0,3.705100917E0
1.485183250E1,2.988985544E-1,2.460347548E0,3.461980560E0,4.257694188E0
1.486178662E1,4.266498376E-1,3.868833041E0,3.013852583E0,4.922723491E0
1.487174163E1,3.504385445E-1,5.169681818E0,1.967864640E0,5.542644542E0
1.488169663E1,1.366093033E-1,6.264378237E0,6.929827631E-1,6.304071851E0
1.489165063E1,-9.164377637E-2,7.235378562E0,-2.920752923E-1,7.241851248E0
1.490160562E1,-3.056586666E-1,8.242986551E0,-6.352672362E-1,8.273077962E0
1.491156062E1,-5.349443646E-1,9.218435438E0,-5.006980996E-1,9.247508637E0
1.492151562E1,-7.115446030E-1,9.930398848E0,-3.059214990E-1,9.960557463E0
1.493147063E1,-8.047935862E-1,1.032665530E1,-2.176777323E-1,1.036025511E1
1.494142563E1,-8.581532297E-1,1.057528943E1,-2.637130073E-1,1.061332738E1
1.495138063E1,-8.233736256E-1,1.068883534E1,-5.432881951E-1,1.073425858E1
1.496133563E1,-6.918467952E-1,1.062779626E1,-9.050016332E-1,1.068867313E1
1.497129063E1,-5.327640110E-1,9.633156225E0,-1.413849728E0,9.750923413E0
1.498124563E1,-3.509856246E-1,7.697984537E0,-1.997333438E0,7.960621691E0
1.499120063E1,2.767392151E-2,4.809361187E0,-2.831582007E0,5.581091070E0
1.500115563E1,7.267214166E-1,-1.639746380E-1,-3.845499727E0,3.916998832E0
1.501111062E1,1.453287005E0,-6.007401295E0,-5.066447471E0,7.991858571E0
1.502106562E1,1.771618488E0,-1.090864621E1,-5.919574946E0,1.253708745E1
1.503102062E1,1.259105359E0,-1.210460997E1,-4.724001194E0,1.305462049E1
1.504097463E1,4.621748156E-1,-7.659446123E0,-2.318561339E0,8.016011924E0
1.505092963E1,3.011922710E-1,-2.598685069E0,-8.442525709E-1,2.748934935E0
1.506088462E1,3.510248740E-1,4.552642107E-2,-2.676674427E-1,4.437758185E-1
1.507083962E1,4.717720699E-1,1.677555061E0,-1.756649762E-1,1.751461690E0
1.508079462E1,6.472254501E-1,2.655531700E0,-1.911981046E-1,2.739946369E0
1.509074963E1,8.998897780E-1,3.154449468E0,-3.837609494E-1,3.302669455E0
1.510070463E1,1.043568219E0,3.423282809E0,-6.082343523E-1,3.630130693E0
1.511065963E1,1.114023001E0,3.653432141E0,-9.560723841E-1,3.937345306E0
1.512061463E1,1.110237514E0,4.009621130E0,-1.148774393E0,4.316175569E0
1.513056963E1,9.869260215E-1,4.545060022E0,-9.786997931E-1,4.752835666E0
1.514052463E1,7.145773344E-1,5.240594510E0,-5.829380914E-1,5.321115335E0
1.515047963E1,3.399222540E-1,5.970759133E0,-2.154815912E-2,5.980466210E0
1.516043463E1,-1.904803589E-3,6.565965925E0,7.810033853E-1,6.612252147E0
1.517038962E1,-3.520734259E-1,6.939068570E0,1.529250376E0,7.114297930E0
1.518034462E1,-7.123407014E-1,7.127391599E0,2.084938177E0,7.460168060E0
1.519029962E1,-1.013305223E0,7.163017514E0,2.576263628E0,7.679371177E0
1.520025363E1,-1.211787351E0,7.200183586E0,2.966192221E0,7.880949724E0
1.521020863E1,-1.375169081E0,7.230652843E0,3.035403666E0,7.961601971E0
1.522016363E1,-1.498347403E0,7.337601925E0,2.639811753E0,7.940658225E0
1.523011862E1,-1.764558122E0,7.448729428E0,1.891882997E0,7.885204926E0
1.524007362E1,-2.125752619E0,7.242236761E0,1.322795717E0,7.662806667E0
1.525002862E1,-2.691426295E0,6.907588915E0,8.661647192E-1,7.463832892E0
1.525998363E1,-3.183273610E0,6.353484541E0,9.597064286E-2,7.106982978E0
1.526993863E1,-3.495215549E0,5.542468128E0,-1.054816361E0,6.636875940E0
1.527989363E1,-3.694519648E0,4.317323252E0,-2.339502558E0,6.145081587E0
1.528984863E1,-3.548430474E0,2.356975792E0,-3.418190177E0,5.461750433E0
1.529980363E1,-3.165272080E0,-6.941802728E-1,-4.667468559E0,5.682085562E0
1.530975863E1,-3.090258735E0,-6.274379314E0,-6.586128294E0,9.607008938E0
1.531971363E1,-3.079088799E0,-1.690604292E1,-8.446652673E0,1.914787237E1
1.532966862E1,-1.988063262E0,-2.977746728E1,-7.662537546E0,3.081175806E1
1.533962362E1,6.185254153E-1,-3.702679145E1,-3.773356780E0,3.722370321E1
1.534957763E1,3.684045531E0,-3.251927582E1,6.844715559E-1,3.273444657E1
1.535953263E1,3.716868291E0,-2.118714267E1,1.292382009E0,2.154948667E1
1.536948763E1,1.870993526E0,-1.271945055E1,-3.499953255E-1,1.286108610E1
1.537944263E1,9.360049593E-1,-8.860374756E0,-2.052855089E0,9.143115449E0
1.538939762E1,5.007977946E-1,-6.860978420E0,-3.735520617E0,7.828022585E0
1.539935262E1,3.771418282E-1,-6.161743814E0,-4.722022496E0,7.772182399E0
1.540930762E1,5.375597145E-1,-6.398991081E0,-4.158623972E0,7.650503947E0
1.541926263E1,9.804656522E-1,-6.960251863E0,-2.607742406E0,7.497115402E0
1.542921763E1,1.526879330E0,-7.072047703E0,-1.422950335E0,7.373602027E0
1.543917263E1,1.778212832E0,-6.401249861E0,-7.951040921E-1,6.691056058E0
1.544912763E1,1.674326228E0,-5.119929614E0,-2.490908021E-1,5.392503482E0
1.545908263E1,1.394781666E0,-3.655929487E0,3.025849316E-1,3.924639340E0
1.546903763E1,1.086633035E0,-2.254412706E0,7.172069004E-1,2.603369689E0
1.547899263E1,8.771508334E-1,-9.624797630E-1,9.986050308E-1,1.641027997E0
1.548894663E1,7.732656187E-1,3.277826303E-1,1.150594338E0,1.424516936E0
1.549890163E1,7.101815439E-1,1.694345925E0,1.433196995E0,2.330068576E0
1.550885663E1,6.016272544E-1,3.189743262E0,1.911388139E0,3.766938020E0
1.551881163E1,4.649286349E-1,4.774689537E0,2.281252595E0,5.312055366E0
1.552876663E1,2.389733648E-1,6.167325566E0,1.637153578E0,6.385396209E0
1.553872163E1,-6.822735876E-2,7.340167099E0,7.799460626E-1,7.381803565E0
1.554867662E1,-3.554494621E-1,8.422221252E0,1.086048679E-1,8.430418149E0
1.555863162E1,-6.065978263E-1,9.357482226E0,-2.953498793E-1,9.381773078E0
1.556858662E1,-7.813977069E-1,1.001257328E1,-3.441964956E-1,1.004891423E1
1.557854163E1,-9.069011743E-1,1.032762710E1,-2.045052711E-1,1.036938637E1
1.558849663E1,-9.928611647E-1,1.036859387E1,-7.429939985E-2,1.041628688E1
1.559845163E1,-1.022310374E0,1.031339615E1,-5.432648063E-2,1.036408269E1
1.560840663E1,-1.082980133E0,1.029630591E1,-1.483999944E-1,1.035416747E1
1.561836163E1,-1.170599637E0,1.031436445E1,-3.159648228E-1,1.038538643E1
1.562831663E1,-1.234173562E0,1.022690414E1,-6.556687564E-1,1.032195011E1
1.563827063E1,-1.069981408E0,9.515686832E0,-1.411661115E0,9.679149922E0
1.564822563E1,-9.908472374E-1,8.898223198E0,-2.269556994E0,9.236397744E0
1.565818063E1,-8.687822253E-1,7.756786476E0,-3.147039292E0,8.415840736E0
1.566813563E1,-4.932124941E-1,3.058817672E0,-4.316680643E0,5.313506929E0
1.567809063E1,-8.469428748E-2,-2.583079435E0,-6.610367342E0,7.097635444E0
1.568804563E1,2.355536208E-1,-1.009494300E1,-8.755914248E0,1.336523079E1
1.569800063E1,7.292789888E-1,-1.594838945E1,-7.218146233E0,1.752097626E1
1.570795563E1,1.668738045E0,-1.409173827E1,-2.012631216E0,1.433221750E1
1.571791062E1,1.758850947E0,-6.607031506E0,1.042845430E0,6.916209118E0
1.572786562E1,8.745642444E-1,-1.568876372E0,2.166510344E0,2.814249946E0
1.573782062E1,2.771404803E-1,1.086241930E0,3.716034771E0,3.881448543E0
1.574777563E1,-2.461085759E-1,2.331275525E0,4.289120961E0,4.887941655E0
1.575773063E1,-4.502070270E-1,2.284240522E0,3.996953137E0,4.625589207E0
1.576768563E1,-1.597799186E-1,1.865631922E0,2.865371897E0,3.422932690E0
1.577764063E1,1.697508831E-1,1.819602640E0,1.525334934E0,2.380423448E0
1.578759462E1,4.133916416E-1,1.933332739E0,7.979964173E-1,2.132009946E0
1.579754963E1,5.439648642E-1,2.067991776E0,1.147458769E0,2.426756969E0
1.580750463E1,3.536283468E-1,2.199319655E0,2.117871011E0,3.073668423E0
1.581745963E1,1.124859573E-1,2.379203398E0,2.790563497E0,3.668856297E0
1.582741463E1,-9.291137964E-2,2.525150485E0,3.233131064E0,4.103431975E0
1.583736963E1,-4.111707960E-1,2.615542007E0,3.541187527E0,4.421552953E0
1.584732463E1,-8.491463980E-1,2.741337250E0,3.613081090E0,4.614145045E0
1.585727963E1,-1.295877621E0,2.794087322E0,3.428947299E0,4.609110798E0
1.586723500E1,-1.659761107E0,2.881962202E0,2.971749415E0,4.460023279E0
1.587719000E1,-1.768133986E0,3.208318112E0,2.366511724E0,4.361190278E0
1.588714500E1,-1.659930968E0,3.897461008E0,1.861221367E0,4.627063660E0
1.589710000E1,-1.543003905E0,4.630515910E0,1.355597427E0,5.065588122E0
1.590705500E1,-1.350770258E0,5.510034208E0,7.437453657E-1,5.721731768E0
1.591701000E1,-1.041844606E0,6.407190047E0,9.588585824E-2,6.492050414E0
1.592696400E1,-9.094934642E-1,7.065161437E0,-2.719893757E-1,7.128650834E0
1.593691900E1,-9.927677554E-1,7.428432573E0,-3.410517168E-1,7.502233973E0
1.594687400E1,-1.117835751E0,7.308964602E0,-1.067479092E0,7.470611215E0
1.595682900E1,-1.263826547E0,6.040138101E0,-2.464957785E0,6.645038954E0
1.596678400E1,-1.277555370E0,3.397153357E0,-3.791768492E0,5.248838629E0
1.597673900E1,-9.917077283E-1,-5.595943254E-1,-5.416288723E0,5.534691821E0
1.598669400E1,-6.251891215E-1,-5.857343030E0,-5.841161445E0,8.295691402E0
1.599664900E1,1.054640360E-1,-1.233287943E1,-5.684297022E0,1.358021613E1
1.600660400E1,9.897812900E-1,-1.974416212E1,-5.681194489E0,2.056909272E1
1.601655900E1,1.441515829E0,-2.572183383E1,-5.031559474E0,2.624894844E1
1.602651400E1,1.333944456E0,-2.629731445E1,-3.470819503E0,2.655889198E1
1.603646900E1,8.501967041E-1,-2.047251235E1,-1.408818199E0,2.053853366E1
1.604642400E1,1.846563128E-1,-1.391510441E1,-2.167583308E-1,1.391801756E1
1.605637900E1,-1.785491154E-2,-9.970234759E0,1.936793706E-1,9.972131750E0
1.606633400E1,2.890470559E-1,-7.308389820E0,-3.969353110E-2,7.314211205E0
1.607628800E1,8.183732329E-1,-5.611692145E0,-1.659840336E-1,5.673479900E0
1.608624300E1,1.520664617E0,-4.846940657E0,1.699718932E0,5.356705989E0
1.609619800E1,2.726693484E0,-4.627187675E0,4.982204297E0,7.325850311E0
1.610615300E1,2.971451207E0,-4.096052917E0,1.821484859E0,5.378194759E0
1.611610800E1,2.613876135E0,-3.134620391E0,-1.157450491E-1,4.083085887E0
1.612606300E1,2.124194336E0,-1.582032022E0,4.700225830E-2,2.649006627E0
1.613601800E1,1.704992828E0,-2.333039045E-2,1.110922734E0,2.035115273E0
1.614597300E1,1.634881204E0,1.547249860E0,2.485393219E0,3.353207142E0
1.615592800E1,1.714627285E0,3.065732589E0,3.664402395E0,5.076072098E0
1.616588300E1,1.801898441E0,4.553235599E0,4.482771096E0,6.638827390E0
1.617583800E1,1.782104446E0,5.863796602E0,4.470359211E0,7.585783962E0
1.618579300E1,1.472147053E0,6.930224072E0,3.604953461E0,7.949271167E0
1.619574800E1,8.830347403E-1,7.829617056E0,2.416634056E0,8.241527392E0
1.620570300E1,1.555596907E-1,8.547433528E0,1.394485065E0,8.661836257E0
1.621565700E1,-5.196780885E-1,9.028086934E0,6.605564439E-1,9.067124893E0
1.622561200E1,-9.515424000E-1,9.431075283E0,2.770095026E-1,9.483003121E0
1.623556700E1,-1.184196167E0,9.753876085E0,2.126586286E-1,9.827799496E0
1.624552200E1,-1.306964819E0,9.941826646E0,2.789006384E-1,1.003124417E1
1.625547700E1,-1.380775245E0,9.946014422E0,3.147287945E-1,1.004633253E1
1.626543200E1,-1.499162066E0,9.682247109E0,3.418504830E-1,9.803583923E0
1.627538700E1,-1.710124637E0,9.229427034E0,6.148160148E-1,9.406638527E0
1.628534200E1,-1.979482765E0,8.394358100E0,7.148396552E-1,8.654166376E0
1.629529700E1,-2.504007830E0,6.704431500E0,5.442225802E-1,7.177439319E0
1.630525200E1,-2.744432182E0,4.162103065E0,-6.696231365E-3,4.985484406E0
1.631520700E1,-2.804786849E0,-3.664976299E-2,-1.655536201E0,3.257141782E0
1.632516200E1,-2.901692462E0,-7.863926763E0,-4.541879137E0,9.533615755E0
1.633511700E1,-2.974961875E0,-1.929638234E1,-7.551747428E0,2.093393558E1
1.634507100E1,-2.550936121E0,-2.686700400E1,-7.712880903E0,2.806834001E1
1.635502600E1,-1.153138754E0,-2.017065101E1,-4.701497015E0,2.074340776E1
1.636498100E1,-5.249666758E-1,-7.901233753E0,-1.763160052E0,8.112571614E0
1.637493600E1,-3.447621406E-1,-1.302155045E0,6.011101413E-1,1.475060032E0
1.638489100E1,-9.496419087E-2,2.524963959E0,2.806906757E0,3.776663440E0
1.639484600E1,-9.923784770E-2,5.105915592E0,3.593235641E0,6.244322586E0
1.640480100E1,-2.200721671E-1,6.767241706E0,3.247362310E0,7.509284523E0
1.641475600E1,-2.556331786E-1,7.893673303E0,3.235676064E0,8.534929767E0
1.642471100E1,-1.987498567E-1,8.789852657E0,3.985587319E0,9.653285323E0
1.643466600E1,6.553866282E-2,9.126176316E0,4.649442762E0,1.024249518E1
1.644462100E1,-1.783633201E-1,7.543257270E0,5.206215806E0,9.167182050E0
1.645457600E1,-8.481916208E-1,4.935968024E0,5.526170769E0,7.458000585E0
