"Time (s)","Linear Acceleration x (m/s^2)","Linear Acceleration y (m/s^2)","Linear Acceleration z (m/s^2)","Absolute acceleration (m/s^2)"
6.261624978E-3,-1.239854717E0,-3.839135617E-1,-4.834916443E-1,1.385060833E0
1.627262501E-2,-9.623692507E-1,-2.716648552E-1,-2.827526379E-1,1.039184980E0
2.628362499E-2,-5.561088002E-1,2.271497101E-2,-5.458083451E-2,5.592423759E-1
3.629562497E-2,2.293277979E-2,2.102886790E-1,1.237931567E-1,2.450958722E-1
4.630662501E-2,4.840392360E-1,3.040090209E-1,2.540445632E-1,6.255030830E-1
5.631862499E-2,5.614163178E-1,2.524035421E-1,4.556466186E-1,7.658391940E-1
6.632962497E-2,6.811737263E-1,2.741291642E-1,6.639191777E-1,9.899157129E-1
7.634162501E-2,9.179605249E-1,4.743992239E-1,8.552517682E-1,1.341328348E0
8.635262499E-2,7.663141564E-1,3.172883400E-1,1.169968210E0,1.434132104E0
9.636462497E-2,4.126856634E-1,2.647566622E-1,1.101902527E0,1.206065805E0
1.063756250E-1,-1.185958591E-1,2.615336770E-1,6.005026156E-1,6.656337081E-1
1.163876250E-1,-5.046044782E-1,2.281478298E-1,3.616327465E-2,5.549638673E-1
1.263986250E-1,-7.750604215E-1,2.727571151E-1,-5.938958466E-1,1.013818217E0
1.364106250E-1,-8.513323796E-1,4.063823649E-1,-1.203645249E0,1.529272812E0
1.464216250E-1,-1.249040400E0,-2.528605020E-1,-1.286891474E0,1.811112923E0
1.564336250E-1,-1.435690833E0,2.491744173E-1,-7.229795641E-1,1.626651624E0
1.664446250E-1,-8.535236236E-1,2.078720248E-1,-4.996632886E-1,1.010631860E0
1.764566250E-1,-3.903840905E-1,-3.157408744E-1,-3.678886825E-1,6.224420621E-1
1.864676250E-1,-3.694566134E-1,5.918808961E-1,-8.435836494E-2,7.028068853E-1
1.964786250E-1,-4.842517823E-2,7.505257970E-1,-2.458046669E-1,7.912356818E-1
2.064906250E-1,-1.218741006E-1,2.322122294E-1,-4.422740364E-1,5.141810373E-1
2.165016250E-1,-7.178310907E-1,3.020730078E-2,-5.299881184E-1,8.927941316E-1
2.265136250E-1,-9.982544902E-1,-6.769306943E-2,-5.817061561E-1,1.157357521E0
2.365246250E-1,-8.526941961E-1,1.397367597E-2,2.395569170E-1,8.858161052E-1
2.465366250E-1,8.206245571E-2,5.962361947E-2,1.109332584E0,1.113960504E0
2.565476250E-1,1.761181062E0,-5.907224165E-1,9.783327341E-1,2.099487234E0
2.665596250E-1,3.434768495E0,1.746139392E-2,8.658960396E-1,3.542275464E0
2.765706250E-1,3.372513775E0,1.394512401E0,1.792904838E0,4.066081868E0
2.865826250E-1,2.035370160E0,1.878516846E0,5.671143710E0,6.311372926E0
2.965936250E-1,2.135787318E0,-6.038964857E-1,8.165473521E0,8.461751371E0
3.066056250E-1,4.121910182E0,-4.114958720E0,2.159706523E0,6.211872590E0
3.166171250E-1,2.455213108E0,-5.935303372E0,-1.864735544E-2,6.423102462E0
3.266291250E-1,1.034981436E0,-5.788637077E0,-2.043624675E0,6.225424290E0
3.366401250E-1,1.068125501E-1,-3.925922038E0,-5.796286404E0,7.001514754E0
3.466511250E-1,2.789539065E0,-1.569904897E0,-8.497640394E0,9.080529822E0
3.566631250E-1,6.034347603E0,3.793524411E-1,-7.158001773E0,9.369858518E0
3.666741250E-1,8.072587577E0,1.236849833E-1,-6.345612434E0,1.026882492E1
3.766861250E-1,6.337494745E0,1.597855465E-1,-3.380057852E0,7.184299698E0
3.866971250E-1,3.875122306E-1,1.069849699E0,-3.248834054E0,3.442334501E0
3.967091250E-1,-1.967391601E0,-1.151207273E0,-4.446463103E0,4.996693108E0
4.067201250E-1,5.590387230E0,-5.859658527E0,-4.817787024E0,9.423327398E0
4.167321250E-1,3.877323490E0,-4.866886679E0,-2.883263792E0,6.858092555E0
4.267431250E-1,4.478010001E0,-5.687200164E0,-2.391283745E0,7.623323240E0
4.367551250E-1,3.619389359E0,-6.797388196E0,-3.863205680E0,8.615615111E0
4.467661250E-1,1.925202186E0,-7.284584051E0,-5.458440131E0,9.304092482E0
4.567781250E-1,9.976098347E-1,-7.875824677E0,-6.783671213E0,1.044231942E1
4.667891250E-1,2.148579857E-1,-8.340247382E0,-7.332168108E0,1.110705089E1
4.768011250E-1,-4.088957906E-1,-9.152940191E0,-6.829870648E0,1.142762631E1
4.868121250E-1,-3.397349238E-1,-1.030299629E1,-4.708344104E0,1.133294563E1
4.968241250E-1,-1.834459831E0,-1.323242210E1,-4.874542438E0,1.422052747E1
5.068351250E-1,-3.424646965E0,-1.497277684E1,-4.384421221E0,1.597295848E1
5.168461250E-1,-3.604510826E0,-1.623414054E1,-3.041598791E0,1.690535834E1
5.268581250E-1,-3.699661982E0,-1.736013418E1,-6.173887897E-1,1.776071301E1
5.368691250E-1,-3.419876221E0,-1.671526231E1,3.322669185E0,1.738205045E1
5.468811250E-1,-2.499951324E0,-1.616178943E1,6.661887159E0,1.765882031E1
5.568921250E-1,-2.353032430E0,-1.582905012E1,8.494333794E0,1.811765150E1
5.669041250E-1,-2.306636528E0,-1.561049757E1,9.401165020E0,1.836818200E1
5.769151250E-1,-7.820305949E-1,-1.487584872E1,1.006203488E1,1.797628974E1
5.869271250E-1,1.676839947E0,-1.343409958E1,1.091631659E1,1.739116994E1
5.969381250E-1,4.036898975E0,-1.156443601E1,1.214859858E1,1.725170081E1
6.069501250E-1,7.474953606E0,-9.462171945E0,1.413163967E1,1.857715987E1
6.169611250E-1,1.273569645E1,-7.006954744E0,1.644578051E1,2.194901081E1
6.269731250E-1,1.718462533E1,-3.622912599E0,1.843970795E1,2.546487134E1
6.369841250E-1,2.001443913E1,-2.070423049E-1,1.856131951E1,2.729731163E1
6.469961250E-1,2.069413819E1,3.566189345E0,1.694283126E1,2.698193087E1
6.570071250E-1,2.147993147E1,7.758946438E0,1.446742772E1,2.703507297E1
6.670191250E-1,2.360518152E1,1.154862630E1,1.259042238E1,2.913921927E1
6.770301250E-1,2.456432369E1,1.564204096E1,1.119234961E1,3.119852775E1
6.870411250E-1,2.357737918E1,1.826503641E1,9.930660803E0,3.143441407E1
6.970531250E-1,2.131374191E1,1.788869909E1,8.180709611E0,2.900353701E1
7.070641250E-1,1.926839991E1,1.616528490E1,5.908290989E0,2.583593569E1
7.170761250E-1,1.783955090E1,1.545788641E1,3.660905467E0,2.388719442E1
7.270871250E-1,1.654469318E1,1.538495058E1,1.346344208E0,2.263263616E1
7.370991250E-1,1.493638260E1,1.513127965E1,-1.264428810E0,2.129905936E1
7.471101250E-1,1.296238832E1,1.432951178E1,-3.241408675E0,1.959247685E1
7.571221250E-1,1.064981336E1,1.277243217E1,-3.739432404E0,1.704514309E1
7.671331250E-1,8.127587657E0,1.049273961E1,-3.984883899E0,1.385765367E1
7.771451250E-1,5.496718928E0,8.483372018E0,-5.150983007E0,1.134522568E1
7.871561250E-1,-4.213498337E0,2.066269187E0,-2.111615981E1,2.163134859E1
7.971681250E-1,-1.308925302E1,-6.525928286E0,-2.807872250E1,3.165961057E1
8.071791250E-1,-8.379802626E0,-5.445547020E-1,-7.991631707E0,1.159240308E1
8.171911250E-1,-4.316035403E0,1.227603630E0,-5.742408405E0,7.287690070E0
8.272021250E-1,-3.884084918E0,7.607028759E-1,-3.989061735E0,5.619377015E0
8.372141250E-1,-5.268864044E0,5.197946674E-1,-4.922272090E0,7.229099345E0
8.472251250E-1,-5.685701523E0,1.667380321E0,-5.657810889E0,8.192568767E0
8.572371250E-1,-4.624017607E0,2.528753539E0,-4.069905923E0,6.658848813E0
8.672481250E-1,-4.016700354E0,2.759277093E0,-2.714858134E0,5.578346215E0
8.772601250E-1,-2.853654077E0,1.442518626E0,-2.416443876E0,4.007917487E0
8.872711250E-1,-1.827943693E0,8.775390154E-1,-2.071000169E0,2.898360669E0
8.972831250E-1,-6.295483670E-1,4.855293989E-1,-2.226982102E0,2.364639343E0
9.072941250E-1,4.581743699E-1,2.661067843E-3,-2.393994807E0,2.437445788E0
9.173061250E-1,2.039681020E0,1.024886511E0,-1.808277168E0,2.912139650E0
9.273171250E-1,3.733400709E0,2.058870705E0,-6.403870583E-1,4.311302009E0
9.373291250E-1,4.606435614E0,2.752283238E0,5.370269966E-1,5.392838778E0
9.473401250E-1,4.871998607E0,3.624560344E0,1.732749268E0,6.314762715E0
9.573511250E-1,5.451630464E0,4.268110161E0,2.247872010E0,7.279420831E0
9.673631250E-1,5.726773535E0,4.206154234E0,1.626546291E0,7.289260689E0
9.773741250E-1,5.945870460E0,3.257996056E0,1.251290116E0,6.894464503E0
9.873861250E-1,4.553342311E0,1.211990980E0,2.567848608E0,5.366162019E0
9.973971250E-1,2.809264355E0,-6.585637128E-1,3.186605354E0,4.298851714E0
1.007409125E0,1.294500748E0,-1.473830466E0,2.347320577E0,3.059055789E0
1.017420125E0,2.564825597E-1,-1.504924205E0,6.964984015E-1,1.678001844E0
1.027432125E0,-9.355913419E-1,-1.458057602E0,-3.154695636E-1,1.760904363E0
1.037443125E0,-1.642287580E0,-2.146643844E0,-1.044914979E0,2.897763896E0
1.047455125E0,-2.007623076E0,-2.718417919E0,-1.352260421E0,3.639911351E0
1.057466125E0,-2.436117856E0,-3.001955838E0,-1.711654853E0,4.228022162E0
1.067478125E0,-1.220373548E0,-2.824149612E0,-2.940930495E0,4.256078571E0
1.077489125E0,1.522009769E-1,-2.254322659E0,-3.795566259E0,4.417177720E0
1.087501125E0,1.428258145E0,-1.523659269E0,-4.504518353E0,4.965092596E0
1.097512125E0,2.607537169E0,-5.822405916E-1,-5.405838579E0,6.030036893E0
1.107524125E0,2.590063642E0,1.598183786E0,-5.630547076E0,6.400443849E0
1.117535125E0,3.325997420E0,2.798095588E0,-4.299176418E0,6.113470016E0
1.127547125E0,3.997107796E0,2.390956301E0,-2.811548862E0,5.440436542E0
1.137558125E0,1.749777676E0,3.115321655E0,-1.371862627E0,3.827395720E0
1.147570125E0,-4.587386262E-1,5.248255532E0,-1.192316269E0,5.401503989E0
1.157581125E0,1.483711384E0,5.511572610E0,3.834531519E0,6.876224551E0
1.167593125E0,1.253508842E0,6.897349856E0,8.961913995E0,1.137807637E1
1.177604125E0,1.003417143E0,8.012867625E0,1.057076369E1,1.330240348E1
1.187616125E0,1.011702355E0,8.408522395E0,9.212009348E0,1.251350897E1
1.197627125E0,1.480331693E0,8.169865365E0,7.450630358E0,1.115571489E1
1.207639125E0,1.894231823E0,8.025942584E0,5.544602362E0,9.937126542E0
1.217650125E0,4.932714779E-1,7.987303013E0,2.628890616E0,8.423264928E0
1.227662125E0,-1.758275288E-1,7.642959899E0,9.559523700E-1,7.704517913E0
1.237673125E0,-1.114693896E0,7.215654150E0,8.251713520E-1,7.347728564E0
1.247685125E0,-2.407809146E0,5.320915373E0,2.157586031E-1,5.844333757E0
1.257696125E0,-3.532131068E0,4.729548447E0,-2.106085509E0,6.267389773E0
1.267708125E0,-3.302238429E0,5.701703013E0,-2.074669881E0,6.907854298E0
1.277719125E0,-2.527710396E0,5.785932155E0,-1.594221421E0,6.512132729E0
1.287730125E0,-2.001114540E0,5.019963276E0,-4.344481230E-3,5.404119685E0
1.297742125E0,-1.524082899E0,3.164135966E0,2.394331606E0,4.250577483E0
1.307753125E0,-9.133691449E-1,1.187869461E0,4.655003464E0,4.890228451E0
1.317764917E0,-5.035701057E-1,2.925929171E-1,4.247437623E0,4.287180872E0
1.327775917E0,-1.352306029E-1,-7.221252859E-1,5.822988299E0,5.869151981E0
1.337787917E0,2.790981281E-1,-5.143721350E0,8.065361003E0,9.570047712E0
1.347798917E0,-2.101507286E0,-4.387602808E1,9.628362678E0,4.496918435E1
1.357810917E0,-1.373147991E0,-7.330365177E1,1.333025186E1,7.451849779E1
1.367821917E0,-1.773985660E-1,-7.770443467E1,1.157258703E1,7.856166628E1
1.377833917E0,5.642824402E-1,-5.865179235E1,4.857672052E0,5.885531529E1
1.387844917E0,-2.517004692E-1,-3.282219199E1,-4.409143834E0,3.311797382E1
1.397856917E0,-1.113710979E0,-2.499896361E0,-2.561486253E1,2.576064860E1
1.407867917E0,-2.087925958E-1,1.209965738E1,-2.821014685E1,3.069621619E1
1.417879917E0,1.166164889E0,9.373823440E0,-2.104374088E1,2.306658918E1
1.427890917E0,8.604641224E-1,8.308594649E0,-1.393528081E1,1.624700572E1
1.437902917E0,8.750628658E-1,6.900378714E0,-6.778263708E0,9.712148079E0
1.447913917E0,1.413147624E0,4.475312680E0,-8.011723325E-2,4.693807470E0
1.457925917E0,2.829265341E0,4.860295697E0,4.022214863E0,6.914147022E0
1.467936917E0,2.897818097E0,6.944924557E0,4.541258163E0,8.789331745E0
1.477948917E0,2.743006046E0,7.762572296E0,5.201338059E0,9.738353476E0
1.487959917E0,4.615102649E0,7.129084368E0,4.980969365E0,9.845459471E0
1.497971917E0,5.355685841E0,6.952905421E0,4.848121794E0,1.002649239E1
1.507982917E0,4.990529562E0,7.665905542E0,4.630923461E0,1.025265552E1
1.517994917E0,4.391780527E0,8.222114915E0,4.379987862E0,1.029928170E1
1.528005917E0,3.732959829E0,8.920453143E0,4.617799970E0,1.071604171E1
1.538017917E0,2.976179557E0,9.461034077E0,4.545162349E0,1.090996386E1
1.548028917E0,2.271694590E0,9.613337672E0,3.565959549E0,1.050204385E1
1.558040917E0,1.732721494E0,9.610494756E0,2.957094830E0,1.020334960E1
1.568051917E0,1.442169840E0,9.575056536E0,3.199518929E0,1.019796464E1
1.578063917E0,1.458005416E0,9.376439484E0,3.514840851E0,1.011916515E1
1.588074917E0,9.585804011E-1,8.833384593E0,3.907222935E0,9.706387115E0
1.598085917E0,4.987153088E-1,7.853830960E0,4.812728306E0,9.224626359E0
1.608097917E0,3.092033949E-1,6.405143521E0,5.669402994E0,8.559415902E0
1.618108917E0,4.297858456E-1,3.927333264E0,5.827157364E0,7.040200663E0
1.628120917E0,1.116429935E0,9.801734376E-1,6.546150881E0,6.712618500E0
1.638131917E0,1.636920421E0,-1.236056365E0,6.372547048E0,6.694527592E0
1.648143917E0,2.760172886E0,-2.338304463E0,5.855205288E0,6.882561376E0
1.658154917E0,2.444955191E0,-1.319770367E0,3.400732437E0,4.391421276E0
1.668166917E0,1.025016173E0,1.578211452E0,7.450627434E-1,2.023988150E0
1.678177917E0,4.878460658E-1,4.972784432E0,-1.012420174E0,5.098193151E0
1.688189917E0,3.550052199E-1,8.045999703E0,-2.601984653E0,8.463714554E0
1.698200917E0,-9.787192351E-1,1.025544674E1,-5.481161242E0,1.166941334E1
1.708212917E0,-3.813129833E0,1.068916162E1,-7.372158970E0,1.353317639E1
1.718223917E0,-5.634606798E0,1.092211820E1,-7.458286117E0,1.437593446E1
1.728235917E0,-6.176034409E0,1.143866006E1,-6.134912111E0,1.437440404E1
1.738246917E0,-6.952282108E0,9.341050966E0,-4.683749838E-1,1.165370477E1
1.748258917E0,-5.759972856E0,6.472644364E0,3.593165474E0,9.379938725E0
1.758269917E0,-3.529319434E0,4.267923051E0,5.396235697E0,7.732439623E0
1.768281917E0,-2.680720920E0,1.051535781E0,4.855116234E0,5.644833549E0
1.778292917E0,-2.384256561E0,-3.979147781E0,3.745339554E0,5.962035289E0
1.788304917E0,-1.994395504E0,-1.094013347E1,3.045549755E0,1.152993959E1
1.798315917E0,-1.874479929E-1,-1.910684718E1,2.865771262E0,1.932147487E1
1.808327917E0,3.392241111E0,-2.773784152E1,3.825270115E0,2.820510314E1
1.818338917E0,8.093443426E0,-3.208167020E1,4.314931741E0,3.336699005E1
1.828350917E0,1.079451207E1,-3.049063814E1,3.534781903E0,3.253759653E1
1.838361917E0,9.153838323E0,-2.388724653E1,1.188281398E0,2.560869609E1
1.848373917E0,6.847420481E0,-1.678227491E1,-8.328174636E-1,1.814457228E1
1.858384917E0,4.848595419E0,-1.191273125E1,-1.793338994E0,1.298607363E1
1.868395917E0,3.020882983E0,-9.132293088E0,-1.734528868E0,9.774103613E0
1.878407917E0,1.906131492E0,-7.585966503E0,-1.623476502E0,7.988485526E0
1.888418917E0,2.118244210E0,-7.395077131E0,-1.336032059E0,7.807631265E0
1.898430917E0,3.254825988E0,-8.541937146E0,-6.591794246E-1,9.164774952E0
1.908441917E0,3.665556343E0,-9.620627981E0,6.293358207E-3,1.029528172E1
1.918453917E0,3.562724285E0,-9.819133351E0,4.900759014E-1,1.045698611E1
1.928464917E0,2.901182000E0,-8.900287850E0,6.039577353E-1,9.380658066E0
1.938476917E0,1.973342312E0,-7.335827295E0,4.639368010E-1,7.610760760E0
1.948487917E0,1.456829541E0,-5.552926458E0,3.077563553E-1,5.749091975E0
1.958499917E0,1.134710523E0,-3.631067711E0,2.434377140E-1,3.812018181E0
1.968510917E0,6.951351231E-1,-1.559578714E0,2.778146642E-1,1.729936297E0
1.978522917E0,2.360338233E-1,5.473935252E-1,2.582696150E-1,6.496574723E-1
1.988533917E0,1.969665290E-1,2.697931030E0,3.547505736E-1,2.728273378E0
1.998545917E0,3.838776013E-1,4.894854496E0,5.504136121E-1,4.940639401E0
2.008556917E0,5.978878869E-1,6.910973868E0,5.764079940E-1,6.960695074E0
2.018568917E0,5.264483602E-1,8.525859057E0,5.688779132E-1,8.561018783E0
2.028579917E0,4.010571595E-1,9.571555808E0,5.262429768E-1,9.594397277E0
2.038591917E0,7.458620578E-2,1.014034430E1,4.344118702E-1,1.014991917E1
2.048602917E0,1.036647016E-1,1.048295254E1,7.813540721E-1,1.051254272E1
2.058614917E0,8.959537248E-1,1.115665820E1,1.952194687E0,1.136155005E1
2.068625917E0,1.762370678E0,1.160249904E1,2.985432776E0,1.210936593E1
2.078637917E0,2.480531259E0,1.201176788E1,3.552355417E0,1.276929254E1
2.088648917E0,2.837320757E0,1.237826201E1,4.244527756E0,1.338983851E1
2.098660917E0,2.914562184E0,1.293911173E1,4.754201478E0,1.408963153E1
2.108671917E0,2.447794161E0,1.339797782E1,5.114925567E0,1.454853840E1
2.118682917E0,1.371458876E0,1.319849655E1,5.368893532E0,1.431454605E1
2.128694917E0,4.076554500E-1,1.274459124E1,5.522858906E0,1.389578207E1
2.138705917E0,-2.943679856E-1,1.196599237E1,4.600188156E0,1.282315706E1
2.148717917E0,-8.983714753E-1,1.125364363E1,3.685101246E0,1.187566998E1
2.158728917E0,-1.421996215E0,1.082695944E1,2.991177081E0,1.132220227E1
2.168740917E0,-1.886825009E0,1.061129074E1,2.526774842E0,1.106996797E1
2.178751917E0,-2.313399856E0,1.010238651E1,1.637405155E0,1.049243193E1
2.188763917E0,-2.763157890E0,8.349839739E0,-1.496741027E-1,8.796434933E0
2.198774917E0,-2.901608847E0,6.769353721E0,-1.504604947E0,7.517135075E0
2.208786917E0,-3.051258976E0,5.727017949E0,-2.060875130E0,6.808533045E0
2.218797917E0,-3.414110867E0,4.969716983E0,-2.972544343E0,6.722370101E0
2.228809917E0,-3.889801156E0,4.902979202E0,-3.788191166E0,7.315746742E0
2.238820917E0,-3.838183106E0,5.361036628E0,-2.924749203E0,7.212941229E0
2.248832917E0,-3.493371629E0,5.299494098E0,1.109631815E0,6.443567785E0
2.258843917E0,-2.658012089E0,4.946458513E0,5.461146807E0,7.833045674E0
2.268855917E0,-1.671236560E0,4.686543345E0,7.070972984E0,8.646119309E0
2.278866917E0,-1.122182571E0,4.556407129E0,6.673595624E0,8.158248476E0
2.288878917E0,-5.267937845E-1,4.172662552E0,6.293566952E0,7.569518442E0
2.298889917E0,-2.054920618E-1,5.959493887E-1,5.833720279E0,5.867680543E0
2.308901917E0,-1.859336517E0,-1.259079309E1,4.774026170E0,1.359325306E1
2.318912750E0,-2.054921934E0,-2.758024736E1,6.276339301E0,2.835992214E1
2.328923750E0,5.943243013E-1,-3.950735809E1,7.472639862E0,4.021224827E1
2.338935750E0,5.323467098E0,-4.425158305E1,7.735504366E0,4.523693106E1
2.348946750E0,1.044734183E1,-4.016986633E1,6.204082333E0,4.196731764E1
2.358958750E0,1.167576816E1,-2.812838641E1,3.214186670E0,3.062451110E1
2.368969750E0,7.926536994E0,-1.753602661E1,-3.630846101E-1,1.924770242E1
2.378981750E0,4.252869979E0,-1.063256057E1,-3.042932248E0,1.184895287E1
2.388992750E0,1.504905201E0,-6.270520152E0,-4.489186369E0,7.857286866E0
2.399004750E0,2.444364184E-1,-3.967859146E0,-4.894491969E0,6.305529874E0
2.409015750E0,9.006875575E-2,-3.621075404E0,-4.570392500E0,5.831705330E0
2.419027750E0,1.004938881E0,-5.018105031E0,-3.545458919E0,6.225878187E0
2.429038750E0,1.434383541E0,-7.026041810E0,-2.016954062E0,7.449216291E0
2.439050750E0,1.191265816E0,-8.710379641E0,-4.172125778E-1,8.801357513E0
2.449061750E0,1.416028985E0,-8.806289765E0,8.551036875E-1,8.960305789E0
2.459073750E0,1.297216633E0,-7.232940273E0,1.563368002E0,7.512810094E0
2.469084750E0,5.175221470E-1,-4.837040151E0,1.960570824E0,5.244866495E0
2.479096750E0,-2.396851172E-1,-2.481512130E0,1.783655566E0,3.065416544E0
2.489107750E0,-4.722282989E-1,-2.750296354E-1,1.470517872E0,1.568777766E0
2.499119750E0,-4.816645356E-1,1.893848246E0,1.335357875E0,2.366821192E0
2.509130750E0,-4.010724353E-1,4.015639084E0,1.194925369E0,4.208807787E0
2.519142750E0,-1.388805080E-1,6.043612517E0,1.172216465E0,6.157810608E0
2.529153750E0,2.032266312E-1,7.780635515E0,1.274226404E0,7.886903258E0
2.539164750E0,7.071410649E-1,9.250277036E0,1.557414075E0,9.407083093E0
2.549176750E0,9.548307279E-1,1.021618736E1,1.928739166E0,1.044041286E1
2.559187750E0,6.392604460E-1,1.053285268E1,2.231815556E0,1.078566828E1
2.569199750E0,6.649574970E-1,1.057446614E1,2.668859843E0,1.092631299E1
2.579210750E0,8.206729428E-1,1.058846204E1,2.934314078E0,1.101813194E1
2.589222750E0,9.854075727E-1,1.058127347E1,2.918502038E0,1.102052769E1
2.599233750E0,9.181192768E-1,1.052422921E1,3.113966271E0,1.101358839E1
2.609245750E0,6.788405411E-1,1.043917795E1,3.035129431E0,1.089262463E1
2.619256750E0,3.632945982E-1,1.032043971E1,2.606990454E0,1.065081490E1
2.629268750E0,1.225501849E-1,1.023280047E1,2.216187118E0,1.047075496E1
2.639279750E0,-1.113752056E-1,1.014722296E1,1.984284060E0,1.034001554E1
2.649291750E0,-2.447000547E-1,1.011503170E1,1.859827245E0,1.028750221E1
2.659302750E0,-2.496046261E-1,1.041209949E1,2.453536127E0,1.070018494E1
2.669314750E0,-2.090016337E-1,1.093607550E1,3.086445765E0,1.136519144E1
2.679325750E0,-1.524937762E-1,1.073194920E1,2.439128441E0,1.100669504E1
2.689337750E0,-8.518369943E-2,9.505886899E0,1.687182502E0,9.654829195E0
2.699348750E0,-2.704512656E-1,7.922113575E0,7.301371408E-1,7.960284394E0
2.709359750E0,-3.434829160E-1,7.052839015E0,-1.134208394E0,7.151709401E0
2.719371750E0,-2.885410890E-1,6.279039545E0,-4.290130776E0,7.610178424E0
2.729382750E0,8.015070856E-4,5.378579444E0,-7.164142519E0,8.958462787E0
2.739394750E0,3.043033551E-1,4.921726545E0,-7.952821983E0,9.357530134E0
2.749405750E0,1.247233026E-1,4.997082537E0,-7.994481055E0,9.428579804E0
2.759417750E0,2.993530293E-1,6.689907017E0,-6.745174314E0,9.504832700E0
2.769428750E0,-1.123704455E0,7.409365388E0,-1.172626939E0,7.585279236E0
2.779440750E0,-2.694791367E0,7.506149086E0,7.793087161E0,1.115062250E1
2.789451750E0,-3.392291104E0,6.681209868E0,1.334149840E1,1.530169219E1
2.799463750E0,-3.173327789E0,5.253149067E0,1.209879784E1,1.356637363E1
2.809474750E0,-3.173178100E0,4.256190028E0,1.042568608E1,1.169953602E1
2.819486750E0,-3.163147786E0,2.968323823E0,9.013485267E0,1.000296790E1
2.829497750E0,-2.495848333E0,2.252822848E0,6.055478856E0,6.926275613E0
2.839509750E0,-2.204918803E0,2.693569592E0,1.975809837E0,4.002600228E0
2.849520750E0,-1.936393318E0,2.736141999E0,1.163502359E-1,3.354046735E0
2.859532750E0,-4.922286124E0,-9.525686740E0,4.029094112E-1,1.072986228E1
2.869543750E0,-6.151119424E0,-3.011352080E1,2.773412444E0,3.086020450E1
2.879555750E0,7.746533091E-1,-4.285053872E1,5.373149720E0,4.319304914E1
2.889566750E0,9.261052870E0,-4.281079637E1,5.920691764E0,4.419938887E1
2.899577750E0,1.354490783E1,-3.415751128E1,4.355486567E0,3.700230220E1
2.909589750E0,9.636190345E0,-2.411486226E1,1.752231899E0,2.602792852E1
2.919600750E0,4.677976882E0,-1.649896445E1,-3.272052178E-1,1.715244469E1
2.929612750E0,2.253726535E0,-1.017798399E1,-1.138190932E0,1.048647319E1
2.939623750E0,1.338994989E0,-5.610950718E0,-2.119642571E0,6.145613083E0
2.949635750E0,2.225181598E0,-3.497450062E0,-2.412371436E0,4.796157423E0
2.959646750E0,3.129124300E0,-4.012414345E0,-1.548742362E0,5.318786578E0
2.969658750E0,3.023551944E0,-6.362634264E0,2.855458528E-1,7.050284928E0
2.979669750E0,2.336027557E0,-8.154820479E0,1.914281926E0,8.696125407E0
2.989681750E0,1.848474291E0,-8.501334665E0,2.740052032E0,9.121262710E0
2.999692750E0,1.477054621E0,-7.814556382E0,2.949001699E0,8.482074795E0
3.009704750E0,9.558623229E-1,-6.474071084E0,2.621950555E0,7.049957014E0
3.019715750E0,2.955543125E-1,-4.671652241E0,2.093327031E0,5.127738788E0
3.029727750E0,-1.199114095E-1,-2.651669614E0,1.708062324E0,3.156454877E0
3.039738750E0,6.255782537E-2,-6.685016406E-1,1.395383052E0,1.548515995E0
3.049750750E0,5.627791576E-1,1.317869437E0,1.301501473E0,1.935821871E0
3.059761750E0,1.049193460E0,3.349562868E0,1.417334084E0,3.785394858E0
3.069772750E0,1.319134482E0,5.127784764E0,1.301355146E0,5.452322219E0
3.079784750E0,1.614155894E0,6.815588239E0,1.268201580E0,7.118010786E0
3.089795750E0,1.622609360E0,8.263776326E0,1.298831488E0,8.521139803E0
3.099807750E0,1.563583765E0,9.302572194E0,1.513129018E0,9.553648677E0
3.109818750E0,1.541846594E0,1.016420795E1,1.992387863E0,1.047177271E1
3.119830750E0,1.191313033E0,1.056240568E1,2.259704436E0,1.086691790E1
3.129841750E0,7.435057761E-1,1.055523114E1,1.899634066E0,1.075054952E1
3.139853750E0,3.330193601E-1,1.041287834E1,1.599673072E0,1.054029844E1
3.149864750E0,8.128525112E-2,1.026205994E1,1.493618613E0,1.037050519E1
3.159876750E0,-4.618262485E-2,1.014202362E1,1.296521838E0,1.022466355E1
3.169887750E0,-7.723740645E-2,1.006423226E1,1.179576428E0,1.013341685E1
3.179899750E0,-3.949245997E-2,1.003495993E1,1.249090540E0,1.011247782E1
3.189910750E0,-2.762341619E-2,1.006117066E1,1.499087076E0,1.017227507E1
3.199922750E0,8.082862012E-2,1.025129989E1,2.332047358E0,1.051352118E1
3.209933750E0,-7.101553045E-2,1.037548890E1,2.755943595E0,1.073550363E1
3.219945750E0,-4.019621623E-1,1.025451703E1,2.535539818E0,1.057098175E1
3.229956750E0,-6.750418244E-1,1.007113899E1,2.657415673E0,1.043769036E1
3.239967750E0,-8.301187543E-1,9.697086173E0,2.784808960E0,1.012312888E1
3.249979750E0,-6.549344923E-1,9.233645800E0,3.181502781E0,9.788315172E0
3.259990750E0,-6.189556242E-1,8.702619801E0,3.700753073E0,9.477039135E0
3.270002750E0,-7.545698775E-1,8.095009895E0,3.572446450E0,8.880367928E0
3.280013750E0,-1.064347542E0,7.579750328E0,2.063270735E0,7.927328481E0
3.290025750E0,-1.484064702E0,7.099985699E0,5.553094858E-1,7.274655565E0
3.300036750E0,-2.718641868E0,3.579281845E0,-8.768608846E-2,4.495549019E0
3.310048750E0,-3.263079041E0,-2.290369574E0,5.685404923E-1,4.026998374E0
3.320060000E0,-2.039109601E0,-4.768755198E0,3.727997589E-1,5.199805165E0
3.330072000E0,-1.184833294E0,-5.267247874E0,-1.537054655E0,5.613400672E0
3.340083000E0,-8.425752971E-1,-3.407604085E0,-4.868671249E0,6.002137825E0
3.350095000E0,-9.364521982E-1,1.388553504E0,-7.369726528E0,7.557638034E0
3.360106000E0,-7.853785644E-1,5.450198480E0,-5.417186855E0,7.724467385E0
3.370118000E0,-9.266696602E-1,7.717710704E0,-6.244399470E-1,7.798185713E0
3.380129000E0,-2.033668913E-1,7.488075927E0,3.934502535E0,8.461261689E0
3.390141000E0,9.726395926E-1,6.545632233E0,4.161195577E0,7.817088828E0
3.400152000E0,1.026781886E0,4.761921557E0,4.191872117E0,6.426660859E0
3.410163000E0,1.797274316E0,1.684958805E0,4.086338646E0,4.771524355E0
3.420175000E0,-3.822767799E-1,-3.184517021E0,2.719772719E0,4.205288080E0
3.430186000E0,-2.176159711E0,-8.214542186E0,2.134155360E0,8.761791684E0
3.440198000E0,-7.631768328E-1,-1.310755364E1,2.233778467E0,1.331841460E1
3.450209000E0,1.267102011E0,-1.930324463E1,2.693537140E0,1.953140915E1
3.460221000E0,3.557929568E0,-2.385668898E1,2.793780635E0,2.428179734E1
3.470232000E0,5.366302046E0,-2.324199692E1,2.212907707E0,2.395588820E1
3.480244000E0,6.529317917E0,-1.789741729E1,1.822385623E0,1.913819812E1
3.490255000E0,5.394889083E0,-1.204389833E1,2.050058951E0,1.335526327E1
3.500267000E0,3.008513491E0,-8.997280878E0,1.736324548E0,9.644534181E0
3.510278000E0,1.268319401E0,-7.690556234E0,1.562643825E0,7.949537409E0
3.520290000E0,1.084549892E0,-7.451850087E0,2.344032103E0,7.886748677E0
3.530301000E0,1.654949579E0,-8.247569599E0,2.921059317E0,8.904709424E0
3.540312000E0,1.553491909E0,-1.041679597E1,2.647995808E0,1.085978164E1
3.550324000E0,1.037255126E0,-1.263734979E1,2.535068825E0,1.293078041E1
3.560335000E0,9.192818494E-1,-1.274885970E1,2.749910730E0,1.307442205E1
3.570347000E0,6.143903375E-1,-1.126219811E1,2.919425898E0,1.165064931E1
3.580358000E0,7.103975254E-1,-9.346032209E0,2.678959154E0,9.748323181E0
3.590370000E0,6.729412852E-1,-7.368049546E0,2.206128446E0,7.720622178E0
3.600381000E0,2.687508953E-1,-5.575589097E0,1.523240900E0,5.786163121E0
3.610393000E0,-2.661915690E-1,-4.041403086E0,8.530730957E-1,4.139025315E0
3.620404000E0,-3.420793650E-1,-2.463750043E0,3.811817425E-1,2.516422478E0
3.630416000E0,-3.205706745E-2,-8.868086064E-1,-5.439284652E-2,8.890532839E-1
3.640427000E0,3.293150394E-1,6.852562523E-1,-2.712109651E-1,8.072050012E-1
3.650439000E0,4.049564483E-1,2.150294845E0,-3.350647527E-1,2.213600243E0
3.660450000E0,5.280987369E-1,3.522422351E0,-3.441526414E-1,3.578377919E0
3.670462000E0,5.977727699E-1,4.855305684E0,-2.569876130E-1,4.898710871E0
3.680473000E0,6.565595066E-1,6.088861195E0,-8.095177710E-2,6.124692174E0
3.690484000E0,6.067701729E-1,7.206671657E0,1.764438254E-1,7.234322279E0
3.700496000E0,3.845223299E-1,8.113159068E0,4.273232907E-1,8.133499411E0
3.710507000E0,1.546169002E-1,8.801084574E0,5.814606462E-1,8.821626412E0
3.720519000E0,4.232997120E-1,9.413784481E0,7.539399862E-1,9.453409248E0
3.730530000E0,5.334405703E-1,9.912716868E0,1.141411579E0,9.992463907E0
3.740542000E0,1.625502563E-1,1.012922172E1,1.237266739E0,1.020580150E1
3.750553000E0,-4.898625512E-2,1.015170544E1,7.005782962E-1,1.017596840E1
3.760565000E0,-2.605000354E-2,1.009758712E1,3.529028900E-1,1.010378566E1
3.770576000E0,2.606144216E-2,9.968592861E0,2.529178413E-1,9.971834849E0
3.780588000E0,1.924310997E-1,9.908764150E0,4.522833002E-1,9.920947379E0
3.790599000E0,3.613142194E-1,9.844341867E0,6.139226333E-1,9.870081852E0
3.800611000E0,5.308583303E-1,9.771045265E0,7.980923116E-1,9.817947213E0
3.810622000E0,6.597026043E-1,9.683180909E0,9.951037180E-1,9.756507134E0
3.820634000E0,6.386909272E-1,9.409014323E0,1.424218303E0,9.537603179E0
3.830645000E0,5.179748311E-1,8.994247343E0,2.641614157E0,9.388445481E0
3.840656000E0,5.172448428E-1,8.445877917E0,3.866389489E0,9.303191050E0
3.850668000E0,3.647350233E-1,6.816881059E0,3.713338619E0,7.771215009E0
3.860679000E0,-7.623075711E-1,2.591234547E0,2.600115298E0,3.749161089E0
3.870691000E0,-1.090218767E0,-1.094539129E0,2.479857953E0,2.921692716E0
3.880702000E0,-2.684080109E-1,-2.162651766E0,2.109676577E0,3.033123931E0
3.890714000E0,1.673667247E0,-1.748343208E0,2.185589224E0,3.261083605E0
3.900725000E0,3.010184625E0,1.408617640E-1,1.795063630E0,3.507607012E0
3.910737000E0,3.356051231E0,2.849890809E0,1.581044720E-1,4.405672992E0
3.920748000E0,3.016582941E0,4.802083157E0,-1.353800724E0,5.830313172E0
3.930760000E0,2.681997660E0,5.445879142E0,-3.297701574E0,6.908367879E0
3.940771000E0,1.788552902E0,5.040467123E0,-5.220260818E0,7.473710812E0
3.950783000E0,1.556703200E0,4.780161946E0,-6.408906205E0,8.145388378E0
3.960794000E0,9.371827347E-1,4.783522925E0,-8.263269957E0,9.593853941E0
3.970806000E0,-4.652391952E-1,4.570612355E0,-9.550861927E0,1.059839178E1
3.980817000E0,-1.713033919E0,3.961005625E0,-6.466363285E0,7.774181944E0
3.990828000E0,-1.082901634E0,4.212728258E0,-1.718082113E0,4.676704125E0
4.000840000E0,-2.170312203E0,2.468887407E0,2.367099077E0,4.050779940E0
4.010851000E0,-3.894640312E0,-5.452382416E-1,3.293598583E0,5.129649064E0
4.020863000E0,-4.055158660E0,-3.584920900E0,4.215149883E0,6.860281201E0
4.030874000E0,-3.449387119E0,-7.478940237E0,6.160320017E0,1.028505524E1
4.040886000E0,-2.491881875E0,-1.261600044E1,7.815533452E0,1.504843864E1
4.050897000E0,-1.066575258E0,-1.721254227E1,8.945689141E0,1.942767481E1
4.060909000E0,1.639332982E0,-1.852241447E1,8.371125358E0,2.039222867E1
4.070920000E0,3.771719852E0,-1.705944112E1,5.956046369E0,1.845873479E1
4.080932000E0,3.319751424E0,-1.440985253E1,2.423674689E0,1.498461873E1
4.090943000E0,1.768879506E0,-1.171733602E1,-8.192913920E-1,1.187838947E1
4.100955000E0,1.002458931E0,-1.015186097E1,-1.890547493E0,1.037493975E1
4.110966000E0,1.270225593E0,-1.003716199E1,-1.091405606E0,1.017591569E1
4.120977000E0,2.073614459E0,-1.074081592E1,1.006883519E0,1.098539112E1
4.130989000E0,3.124849108E0,-1.173932155E1,3.033799482E0,1.252119370E1
4.141000000E0,3.465437141E0,-1.234985974E1,4.264999150E0,1.351734101E1
4.151012000E0,2.769938321E0,-1.176090479E1,4.636192094E0,1.294162729E1
4.161023000E0,1.762123049E0,-1.036081707E1,3.973085680E0,1.123552481E1
4.171035000E0,9.797811625E-1,-8.697935597E0,2.996516173E0,9.251657362E0
4.181046000E0,3.654653770E-1,-7.011510894E0,2.269310827E0,7.378659878E0
4.191058000E0,-1.357669388E-1,-5.424931492E0,1.670240194E0,5.677853174E0
4.201069000E0,-3.506975761E-1,-3.742874660E0,1.197225883E0,3.945307254E0
4.211081000E0,-3.291146991E-1,-2.031572978E0,7.451948905E-1,2.188817187E0
4.221092000E0,-2.125477508E-1,-2.605957836E-1,4.374610470E-1,5.517779231E-1
4.231104000E0,4.773288617E-2,1.502208173E0,4.136326200E-1,1.558845653E0
4.241115000E0,5.540971753E-1,3.127959242E0,7.409976860E-1,3.261936583E0
4.251126000E0,6.217669655E-1,4.482070892E0,1.110040024E0,4.659156844E0
4.261138000E0,5.407884739E-1,5.722993895E0,1.355376402E0,5.906111791E0
4.271149000E0,7.063988339E-1,6.921083120E0,1.489165374E0,7.114633116E0
4.281161000E0,7.787111306E-1,7.983367252E0,1.624433692E0,8.184089963E0
4.291172000E0,7.577151679E-1,8.824559391E0,1.608543883E0,9.001910583E0
4.301184000E0,7.690204670E-1,9.459966375E0,1.404623991E0,9.594546621E0
4.311195000E0,1.019287144E0,9.864846883E0,1.077889767E0,9.975770479E0
4.321206125E0,1.463990479E0,1.001926951E1,7.121861887E-1,1.015067677E1
4.331217125E0,1.745574551E0,1.000420474E1,3.529285812E-1,1.016148127E1
4.341229125E0,1.738610517E0,9.897476685E0,1.293486329E-1,1.004985285E1
4.351240125E0,1.729647028E0,9.859294367E0,5.305800028E-3,1.000986475E1
4.361252125E0,1.910575668E0,9.792541384E0,-8.940626621E-2,9.977582854E0
4.371263125E0,2.092800928E0,9.740482453E0,-5.742316604E-2,9.962936894E0
4.381274125E0,2.079103240E0,9.766507241E0,5.265195501E-1,9.999227810E0
4.391286125E0,2.015298716E0,9.614920514E0,1.327531961E0,9.913146146E0
4.401297125E0,1.720900471E0,9.015722997E0,1.343336985E0,9.276276938E0
4.411309125E0,1.398139721E0,8.832582940E0,1.271074755E0,9.032438602E0
4.421320125E0,1.331008716E0,8.073386307E0,9.525453436E-1,8.237626678E0
4.431332125E0,8.951812345E-1,6.032000531E0,9.890810859E-1,6.177755356E0
4.441343125E0,-7.112136506E-2,2.231262994E0,8.512949574E-1,2.389204031E0
4.451355125E0,-8.045854253E-1,-7.922638071E-1,9.401393062E-1,1.469320102E0
4.461366125E0,-1.405377113E0,-2.399120184E0,6.556377661E-1,2.856697983E0
4.471378125E0,-1.050988409E0,-1.828189861E0,-3.338982332E-1,2.135027595E0
4.481389125E0,1.327004396E-1,1.450970777E0,-2.663049465E0,3.035581996E0
4.491401125E0,2.233906521E0,5.455196096E0,-4.864956513E0,7.643121395E0
4.501412125E0,1.921035752E0,8.221480492E0,-6.451012589E0,1.062537921E1
4.511423125E0,1.306335804E0,9.972466056E0,-6.196900198E0,1.181347386E1
4.521435125E0,7.929521705E-1,1.158410019E1,-4.056865463E0,1.229952470E1
4.531446125E0,-6.673371676E-1,1.237644352E1,5.508023058E-1,1.240665452E1
4.541458125E0,-7.702315716E-1,1.224739547E1,5.887946772E0,1.361102016E1
4.551469125E0,1.004477536E0,9.842942044E0,1.079628495E1,1.464418833E1
4.561481125E0,8.655669145E-1,5.605876504E0,9.662526205E0,1.120443975E1
4.571492125E0,-8.009086961E-1,1.073773327E0,6.718957738E0,6.851192377E0
4.581504125E0,-2.707371652E0,-4.353184226E0,5.789744539E0,7.733124594E0
4.591515125E0,-5.780438111E0,-1.196679695E1,4.388236822E0,1.399551058E1
4.601527125E0,-7.407977259E0,-2.046556586E1,4.037531936E0,2.213637678E1
4.611538125E0,-4.641451665E0,-2.731593216E1,3.832683507E0,2.797128325E1
4.621549125E0,7.045440240E-1,-3.024560706E1,3.905757623E0,3.050488603E1
4.631561125E0,4.226602532E0,-2.793603640E1,2.244735272E0,2.834299094E1
4.641572125E0,4.439883231E0,-2.152812656E1,-7.368976915E-1,2.199354029E1
4.651584125E0,3.074042067E0,-1.573017721E1,-3.212884787E0,1.634658491E1
4.661595125E0,1.435532958E0,-1.178110575E1,-3.893563254E0,1.249059816E1
4.671607125E0,6.926765151E-2,-9.463117440E0,-2.866500117E0,9.887983243E0
4.681618125E0,-2.918632211E-1,-8.690051796E0,-1.398718888E0,8.806735995E0
4.691630125E0,-4.877195466E-2,-9.321701944E0,-1.073516634E-1,9.322447652E0
4.701641125E0,-4.812831144E-1,-1.004118721E1,8.703989804E-1,1.009032549E1
4.711653125E0,-1.330953167E0,-1.028211121E1,1.585256177E0,1.048838807E1
4.721664125E0,-1.695132522E0,-9.984734684E0,1.953350974E0,1.031426105E1
4.731676125E0,-1.575662797E0,-8.762240936E0,2.341392962E0,9.205525540E0
4.741687125E0,-1.679588284E0,-6.988837146E0,2.454997931E0,7.595516855E0
4.751698125E0,-1.540647915E0,-4.963775627E0,2.248302658E0,5.662819908E0
4.761710125E0,-1.005437356E0,-3.031725183E0,1.798524597E0,3.665644907E0
4.771721125E0,-3.889505725E-1,-9.310655969E-1,1.684311519E0,1.963433469E0
4.781733125E0,9.634833645E-1,1.506597678E0,1.556977434E0,2.371142233E0
4.791744125E0,1.637924241E0,3.760507523E0,1.709572075E0,4.443742717E0
4.801756125E0,2.249122730E0,5.777847794E0,2.047472143E0,6.529488522E0
4.811767125E0,2.927027278E0,7.475405011E0,2.502193147E0,8.408932114E0
4.821779125E0,3.616999602E0,8.848963330E0,2.696811288E0,9.932755371E0
4.831790125E0,3.786853908E0,1.001422336E1,2.541368907E0,1.100379425E1
4.841802125E0,3.410811868E0,1.055643333E1,2.131095513E0,1.129661411E1
4.851813125E0,3.095329440E0,1.058500517E1,1.640925179E0,1.114971005E1
4.861825125E0,2.881043312E0,1.047882792E1,1.054176968E0,1.091867822E1
4.871836125E0,2.729656560E0,1.026075250E1,3.937362993E-1,1.062492800E1
4.881847125E0,2.304197069E0,1.008306497E1,3.721054751E-2,1.034306086E1
4.891859125E0,1.941844238E0,9.926602836E0,4.605734825E-2,1.011485661E1
4.901870125E0,1.780276899E0,9.842229853E0,1.104749537E-1,1.000255363E1
4.911882125E0,1.673711540E0,9.780418351E0,3.086780957E-1,9.927395208E0
4.921893125E0,1.529664651E0,9.729128914E0,7.923949309E-1,9.880471300E0
4.931905125E0,1.373319022E0,9.703322228E0,1.217442924E0,9.875354914E0
4.941916125E0,1.190116692E0,9.613727682E0,1.771388254E0,9.847738523E0
4.951928125E0,1.019125542E0,8.996505538E0,2.851729174E0,9.492528011E0
4.961939125E0,9.582537610E-1,8.629162985E0,3.430863140E0,9.335498164E0
4.971951125E0,5.671574796E-1,8.486968056E0,3.142296031E0,9.067762609E0
4.981962125E0,1.847751210E-1,7.983978871E0,2.404484858E0,8.340240278E0
4.991974125E0,-1.182181290E0,4.902339517E0,1.207627861E0,5.185446017E0
5.001985125E0,-2.630409138E0,-1.771975899E0,1.007116238E0,3.327646907E0
5.011996125E0,-1.066134086E0,-6.449978802E0,1.510051628E0,6.709629226E0
5.022008125E0,-1.452282307E0,-9.069116846E0,8.537488876E-1,9.224255603E0
5.032019125E0,-2.455495273E-1,-7.236923981E0,-1.575509600E0,7.410505636E0
5.042031125E0,1.139138254E0,-1.098335726E0,-5.995089397E0,6.200409197E0
5.052042125E0,2.515402007E0,4.780498745E0,-1.013572266E1,1.148535107E1
5.062054125E0,1.497246226E0,8.730606914E0,-1.087496040E1,1.402604745E1
5.072065125E0,1.081450867E0,1.154472387E1,-8.758898082E0,1.453163724E1
5.082077125E0,2.614889092E-1,1.369218867E1,-4.262469352E0,1.434270030E1
5.092088125E0,-3.184480622E-1,1.438644027E1,3.730392901E0,1.486562828E1
5.102100125E0,-9.908212904E-1,1.285896160E1,8.566892477E0,1.548309617E1
5.112111125E0,-6.715609038E-1,9.549904738E0,8.969269207E0,1.311866856E1
5.122123125E0,-4.368203384E-1,6.955796869E0,8.360925475E0,1.088480578E1
5.132134125E0,-1.294669878E0,4.189690813E0,4.909844418E0,6.583027527E0
5.142145125E0,-9.418860888E-1,1.089962513E0,2.525415949E0,2.907386008E0
5.152157125E0,-2.713324410E0,-2.243488938E0,1.020687041E0,3.665675108E0
5.162168125E0,-4.549283466E0,-6.801140354E0,-3.465855217E-1,8.189725984E0
5.172180125E0,-2.824313334E0,-1.240910607E1,-2.449287540E-1,1.272881178E1
5.182191125E0,8.045853522E-1,-1.793948683E1,-4.785653651E-3,1.795752122E1
5.192203125E0,4.795971648E0,-2.162134989E1,1.201935523E0,2.217946717E1
5.202214125E0,6.515916098E0,-2.129002092E1,2.473100325E0,2.240174946E1
5.212226125E0,5.184693375E0,-1.550507812E1,3.097806321E0,1.663985868E1
5.222237125E0,3.192459294E0,-1.008802224E1,3.483032875E0,1.113963676E1
5.232249125E0,1.030081177E0,-8.061154516E0,1.978137614E0,8.363988749E0
5.242260125E0,-3.504886843E-1,-8.145889442E0,9.718926108E-1,8.211146836E0
5.252271125E0,9.748375610E-2,-9.385351226E0,1.818622062E0,9.560423993E0
5.262283125E0,7.400623508E-1,-1.137238772E1,2.985926574E0,1.178111422E1
5.272294125E0,8.444019672E-1,-1.345864152E1,3.804979692E0,1.401163504E1
5.282306125E0,6.198671320E-1,-1.399697127E1,4.118461787E0,1.460346423E1
5.292317125E0,3.897077139E-1,-1.279518018E1,4.069575555E0,1.343242171E1
5.302329125E0,1.559686303E-2,-1.112142639E1,3.713587711E0,1.172506298E1
5.312340125E0,-2.079690886E-1,-9.896555164E0,3.235704131E0,1.041416518E1
5.322352250E0,-1.938769334E-1,-8.990976995E0,2.675108762E0,9.382508326E0
5.332363250E0,-1.894847973E-1,-8.149707089E0,2.149458401E0,8.430527952E0
5.342375250E0,-2.876643721E-1,-7.324165608E0,1.657643245E0,7.514914090E0
5.352386250E0,-3.943134195E-1,-6.345697219E0,1.188022074E0,6.467979028E0
5.362398250E0,-3.994689826E-1,-5.131894187E0,7.162757313E-1,5.197014945E0
5.372409250E0,-1.200096428E-1,-3.841278037E0,3.378287315E-1,3.857971944E0
5.382420250E0,4.125507024E-1,-2.441629441E0,2.319372641E-1,2.487076055E0
5.392432250E0,7.818124938E-1,-9.593286985E-1,2.756719521E-1,1.267886964E0
5.402443250E0,8.052521541E-1,5.315276903E-1,3.629992408E-1,1.030883682E0
5.412455250E0,9.324356727E-1,1.978235262E0,4.932798833E-1,2.241913486E0
5.422466250E0,1.184119496E0,3.410180368E0,5.240226428E-1,3.647748464E0
5.432478250E0,1.452974617E0,4.955424049E0,5.602055056E-1,5.194342398E0
5.442489250E0,1.811209839E0,6.534400901E0,6.862286443E-1,6.815407983E0
5.452501250E0,1.887932325E0,7.882620311E0,9.831969597E-1,8.164965873E0
5.462512250E0,1.604679312E0,8.864901670E0,1.343456268E0,9.108586721E0
5.472524250E0,1.323452944E0,9.610806413E0,1.516029237E0,9.819239902E0
5.482535250E0,1.161812660E0,1.001559512E1,1.517788079E0,1.019635400E1
5.492547250E0,1.311028780E0,1.008051325E1,1.359069504E0,1.025585753E1
5.502558250E0,1.377421867E0,9.999588951E0,7.447657780E-1,1.012144981E1
5.512569250E0,1.211524884E0,9.924130633E0,1.327072370E-1,9.998688543E0
5.522581250E0,1.393264313E0,9.881590970E0,-2.533715487E-2,9.979362079E0
5.532592250E0,1.511364036E0,9.831833503E0,1.913771025E-1,9.949160592E0
5.542604250E0,1.633853556E0,9.825651827E0,4.537322402E-1,9.970896861E0
5.552615250E0,1.665015268E0,9.814881256E0,7.228527526E-1,9.981316847E0
5.562627250E0,1.475822613E0,9.783374704E0,7.480905048E-1,9.922303784E0
5.572638250E0,1.405191171E0,9.697810058E0,1.054122005E0,9.855620495E0
5.582650250E0,1.441061500E0,9.552458802E0,1.612160532E0,9.794140544E0
5.592661250E0,1.202669129E0,9.191074562E0,2.471223954E0,9.593185731E0
5.602673250E0,9.995705523E-1,8.912385739E0,3.468679422E0,9.615690188E0
5.612684250E0,7.412043120E-1,8.302911741E0,3.947456456E0,9.223347531E0
5.622695250E0,-6.867078236E-1,4.949227170E0,3.242707926E0,5.956640992E0
5.632707250E0,-2.615245846E0,-2.971865482E0,2.416841048E0,4.638169458E0
5.642718250E0,-2.023804660E0,-8.027085130E0,2.588296906E0,8.673474612E0
5.652730250E0,-2.396566851E0,-1.170505570E1,3.057440068E0,1.233287482E1
5.662741250E0,-2.255178106E0,-1.087107785E1,1.862268019E0,1.125762871E1
5.672753250E0,-2.287139864E0,-5.992888505E0,-1.586276516E0,6.607722345E0
5.682764250E0,1.086410329E0,5.308418119E-1,-6.051079996E0,6.170708999E0
5.692776250E0,3.999525619E0,6.005587488E0,-8.953339053E0,1.149893762E1
5.702787250E0,4.443205911E0,9.940016348E0,-1.044232024E1,1.508602187E1
5.712799250E0,4.461474075E0,1.250976472E1,-9.976653832E0,1.661121868E1
5.722810250E0,3.773294215E0,1.384379995E1,-7.080305141E0,1.600060209E1
5.732822250E0,2.015544152E0,1.407725121E1,-2.785986589E0,1.449114009E1
5.742833250E0,1.566494509E0,1.338518412E1,2.098856889E0,1.363899773E1
5.752844250E0,8.986147195E-1,1.142816665E1,7.026974441E0,1.344577521E1
5.762856250E0,5.876254753E-1,9.340521793E0,6.303722981E0,1.128395208E1
5.772867250E0,-7.111067927E-1,6.309214101E0,4.967374588E0,8.061430751E0
5.782879250E0,-3.398256726E0,3.313384976E0,4.515462586E0,6.551035883E0
5.792890250E0,-5.372381980E0,7.284215677E-1,3.649689046E0,6.535542537E0
5.802902250E0,-5.492216572E0,-2.719412531E0,2.576619724E0,6.648204012E0
5.812913250E0,-5.284928100E0,-8.011804016E0,1.554977540E0,9.723035728E0
5.822925250E0,-3.356577188E0,-1.364915784E1,6.666281927E-1,1.407162085E1
5.832936250E0,7.001232366E-1,-1.779726384E1,-5.534103101E-1,1.781962501E1
5.842948250E0,4.531538336E0,-1.932578565E1,-1.104422677E0,1.988065844E1
5.852959250E0,4.788343662E0,-1.758958009E1,-5.811956942E-1,1.823895149E1
5.862971250E0,2.075056821E0,-1.466422278E1,1.867819950E-1,1.481148804E1
5.872982250E0,1.996890804E0,-1.101708750E1,4.536901402E-1,1.120578532E1
5.882993250E0,2.182122117E0,-9.450572239E0,8.684489340E-1,9.738027322E0
5.893005250E0,8.478077511E-1,-9.791484207E0,1.663391935E0,9.967889129E0
5.903016250E0,1.119353981E0,-1.021586459E1,2.623914928E0,1.060668526E1
5.913028250E0,1.912495016E0,-1.092174281E1,4.369795873E0,1.191793686E1
5.923039250E0,1.229056079E0,-1.238978219E1,6.301229728E0,1.395431036E1
5.933051250E0,-5.821860664E-2,-1.338540397E1,7.046083726E0,1.512678832E1
5.943062250E0,-8.998326945E-1,-1.276875193E1,6.382756872E0,1.430350691E1
5.953074250E0,-1.106008442E0,-1.121829253E1,4.969782472E0,1.231958116E1
5.963085250E0,-1.320350119E0,-9.860166771E0,3.581820414E0,1.057334624E1
5.973097250E0,-1.562509924E0,-8.857391506E0,2.430720876E0,9.316824863E0
5.983108250E0,-1.471062248E0,-7.950283706E0,1.500310752E0,8.223257718E0
5.993120250E0,-1.314724659E0,-7.105236499E0,9.072738612E-1,7.282584190E0
6.003131250E0,-8.830951128E-1,-6.123721710E0,4.078973785E-1,6.200500369E0
6.013143250E0,-4.309692489E-1,-4.975040873E0,-1.302554995E-1,4.995371125E0
6.023154250E0,-3.633322762E-2,-3.651934084E0,-4.042472541E-1,3.674419478E0
6.033165250E0,2.610089990E-1,-2.183464930E0,-5.740509814E-1,2.272703088E0
6.043177250E0,6.881265043E-1,-5.910435748E-1,-5.767623353E-1,1.074944364E0
6.053188250E0,1.088725096E0,1.152580345E0,-4.923121691E-1,1.660161154E0
6.063200250E0,1.502171628E0,2.894410340E0,-3.474620193E-1,3.279460424E0
6.073211250E0,1.603685431E0,4.589722225E0,-2.554671907E-1,4.868533717E0
6.083223250E0,1.838656377E0,6.072697152E0,-1.301460104E-1,6.346278118E0
6.093234250E0,2.203187150E0,7.305884873E0,1.474008514E-1,7.632281075E0
6.103246250E0,2.696722995E0,8.497522865E0,5.887339246E-1,8.934585462E0
6.113257250E0,3.036937975E0,9.501604398E0,8.881183827E-1,1.001460097E1
6.123269250E0,3.090370709E0,1.008704225E1,8.360856917E-1,1.058290375E1
6.133280250E0,3.012712376E0,1.024014925E1,5.417509256E-1,1.068787100E1
6.143292250E0,2.905435265E0,1.017334715E1,2.635633186E-1,1.058338377E1
6.153303250E0,2.808526728E0,1.012230447E1,-9.048624694E-2,1.050509676E1
6.163315250E0,2.862676331E0,1.004874182E1,-3.087487739E-1,1.045310737E1
6.173326250E0,2.577012072E0,9.983426077E0,-6.324956560E-1,1.033004541E1
6.183338250E0,2.179842288E0,9.936236708E0,-8.265355074E-1,1.020606061E1
6.193349250E0,1.853593674E0,9.918362939E0,-9.189449036E-1,1.013184054E1
6.203360250E0,1.604429051E0,9.947696081E0,-8.070362127E-1,1.010851905E1
6.213372250E0,1.429151161E0,9.958055009E0,-3.248677568E-1,1.006533018E1
6.223383250E0,1.108952807E0,9.657944326E0,3.484426339E-1,9.727644998E0
6.233395250E0,7.974048252E-1,9.174782465E0,6.307613719E-1,9.230945111E0
6.243406250E0,6.910843914E-1,9.095101288E0,5.468058801E-1,9.137694553E0
6.253418250E0,5.019122008E-1,8.810536598E0,4.304790695E-1,8.835314552E0
6.263429250E0,-6.176962070E-1,6.917379493E0,4.333535242E-1,6.958410949E0
6.273441250E0,-3.745919305E0,3.730699003E-1,5.067442667E-1,3.798405237E0
6.283452250E0,-4.570984530E0,-5.690716095E0,1.476581581E0,7.447042528E0
6.293464250E0,-5.268692136E0,-9.513210536E0,1.384661597E0,1.096255350E1
6.303475250E0,-3.238475127E0,-8.586359028E0,-5.031377041E-1,9.190562009E0
6.313487250E0,-1.909081704E0,-3.375399960E0,-2.170227857E0,4.443850447E0
6.323498375E0,2.248928018E0,3.712334068E0,-5.094339859E0,6.692637751E0
6.333510375E0,6.384346145E0,9.416765977E0,-7.083900009E0,1.340212657E1
6.343521375E0,5.327408121E0,1.152280032E1,-5.768727307E0,1.394397430E1
6.353533375E0,2.450997558E0,1.202331380E1,-1.784608370E0,1.239968914E1
6.363544375E0,2.308897061E0,1.207896760E1,3.707545783E0,1.284439020E1
6.373556375E0,3.398203224E0,1.152664311E1,7.043570008E0,1.392921983E1
6.383567375E0,3.885875920E0,1.086813086E1,5.306923571E0,1.270353249E1
6.393579375E0,2.703380927E0,8.632201198E0,4.736856882E0,1.021082656E1
6.403590375E0,5.275115668E-1,5.036751802E0,4.526489850E0,6.792366858E0
6.413601375E0,-2.022760640E0,1.088532284E0,4.049672803E0,4.655782743E0
6.423613375E0,-5.655384294E0,-5.043696540E0,2.819238535E0,8.085193394E0
6.433624375E0,-9.032698633E0,-1.351049229E1,2.597272674E0,1.645809441E1
6.443636375E0,-8.199579746E0,-2.076209219E1,3.260949192E0,2.255950731E1
6.453647375E0,-4.292039014E0,-2.535076718E1,4.068971830E0,2.603151028E1
6.463659375E0,9.653312308E-1,-2.560111221E1,3.943541746E0,2.592104034E1
6.473670375E0,4.661794713E0,-2.026721193E1,2.336473407E0,2.092728643E1
6.483682375E0,4.837097162E0,-1.386530133E1,-5.304784074E-1,1.469440361E1
6.493693375E0,1.812150364E0,-9.443517573E0,-2.529226579E0,9.942881885E0
6.503705375E0,-7.766472828E-1,-7.225159383E0,-2.002312342E0,7.537596688E0
6.513716375E0,-2.113920925E0,-7.306689450E0,-5.043562639E-1,7.623040577E0
6.523728375E0,-1.704989904E0,-8.975135719E0,6.852442655E-1,9.161310575E0
6.533739375E0,-1.438704853E-1,-1.054162584E1,7.320646754E-1,1.056799379E1
6.543751375E0,1.073284207E0,-1.195166085E1,7.707431298E-1,1.202448256E1
6.553762375E0,1.053696327E0,-1.277754848E1,1.426498717E0,1.290003565E1
6.563774375E0,5.280450886E-1,-1.194116276E1,1.812657902E0,1.208949661E1
6.573785375E0,-3.399156028E-1,-9.797069467E0,1.784172899E0,9.964004501E0
6.583797375E0,-7.105597126E-1,-7.495991303E0,1.766617365E0,7.734062169E0
6.593808375E0,-5.291566078E-1,-5.390590795E0,1.896864240E0,5.739039099E0
6.603819375E0,-3.518312781E-1,-3.446092213E0,1.862787690E0,3.933104978E0
6.613831375E0,-1.793941842E-1,-1.642133213E0,1.794029112E0,2.438713640E0
6.623842375E0,7.963326652E-2,1.290737772E-1,1.854615621E0,1.860806438E0
6.633854375E0,4.900182333E-1,1.734213996E0,1.834694304E0,2.571715233E0
6.643865375E0,1.123201741E0,3.155937000E0,1.774061601E0,3.790621989E0
6.653877375E0,1.649729331E0,4.414060172E0,1.696567283E0,5.008380438E0
6.663888375E0,1.952015762E0,5.474274976E0,1.549310419E0,6.014849526E0
6.673900375E0,2.252393078E0,6.510022690E0,1.418906985E0,7.033275697E0
6.683911375E0,2.644804983E0,7.540560535E0,1.360847642E0,8.105982536E0
6.693923375E0,3.187591487E0,8.498335043E0,1.370890819E0,9.179421530E0
6.703934375E0,3.663820889E0,9.218062386E0,1.294663008E0,1.000361984E1
6.713946375E0,3.896629534E0,9.633607630E0,1.034340874E0,1.044317857E1
6.723957375E0,4.141652721E0,9.819449100E0,5.969048238E-1,1.067385419E1
6.733969375E0,3.756139069E0,9.825896240E0,2.289968455E-1,1.052184666E1
6.743980375E0,3.031814060E0,9.708162553E0,8.274511814E-2,1.017089787E1
6.753992375E0,2.534335876E0,9.604204906E0,1.581216117E-1,9.934214245E0
6.764003375E0,2.318627705E0,9.475299529E0,1.677623912E-1,9.756304619E0
6.774015375E0,1.787511367E0,9.286249107E0,3.154198623E-1,9.461982300E0
6.784026375E0,1.206625648E0,9.170923887E0,5.566362190E-1,9.266694895E0
6.794038375E0,9.170185384E-1,9.079891511E0,6.271946434E-1,9.147607663E0
6.804049375E0,6.493236503E-1,8.710260358E0,8.712503350E-1,8.777774994E0
6.814060375E0,2.442064767E-1,7.597246951E0,1.667170991E0,7.781854352E0
6.824072375E0,-7.694541112E-2,5.361992063E0,3.119383131E0,6.203823869E0
6.834083375E0,-4.041446355E-1,2.160985894E0,4.085864729E0,4.639771924E0
6.844095375E0,-5.522159433E-1,-8.206461918E-1,3.084353632E0,3.239080108E0
6.854106375E0,-5.384906278E-1,-3.378580261E0,1.903253492E0,3.914990497E0
6.864118375E0,-7.416563018E-1,-5.370313236E0,1.780054412E0,5.706041713E0
6.874129375E0,-5.865702721E-1,-5.181858060E0,1.034326329E0,5.316535394E0
6.884141375E0,4.027717458E-1,-2.269186281E0,-1.067701578E0,2.539964196E0
6.894152375E0,1.025876079E0,1.819438918E0,-4.485147112E0,4.947658469E0
6.904164375E0,7.189049318E-1,5.439092279E0,-7.571776480E0,9.350526626E0
6.914175375E0,9.571226171E-1,8.805078222E0,-9.760629035E0,1.318011249E1
6.924187375E0,-4.278017026E-1,1.122597344E1,-1.010078788E1,1.510732967E1
6.934198375E0,-1.516970639E0,1.232341045E1,-7.775733794E0,1.465024508E1
6.944210375E0,-1.813283262E0,1.245911730E1,-2.990902846E0,1.294075346E1
6.954221375E0,-1.945397299E0,1.139165078E1,3.250743755E0,1.200506615E1
6.964233375E0,-1.523251425E0,9.719484517E0,8.636729282E0,1.309128591E1
6.974244375E0,3.741190004E-1,7.843779597E0,8.925791066E0,1.188842250E1
6.984256375E0,3.392264353E-1,4.881725743E0,7.898400777E0,9.291450674E0
6.994267375E0,-1.294454993E0,6.908526224E-1,6.217805164E0,6.388582952E0
7.004279375E0,-5.553845640E0,-6.985766773E0,3.078477765E0,9.440506562E0
7.014290375E0,-7.873077655E0,-1.557283331E1,1.691171764E0,1.753164428E1
7.024301375E0,-6.078487650E0,-2.289686385E1,2.677610494E0,2.384080503E1
7.034313375E0,-3.338667752E0,-2.845592404E1,4.269478702E0,2.896747769E1
7.044324375E0,1.170744136E-1,-3.010822322E1,5.228502468E0,3.055905840E1
7.054336375E0,2.724557203E0,-2.531048455E1,4.293155540E0,2.581617757E1
7.064347375E0,4.784082504E0,-1.791973026E1,2.069967258E0,1.866250097E1
7.074359375E0,4.963410761E0,-1.299297277E1,-8.525866073E-1,1.393483734E1
7.084370375E0,3.005361257E0,-1.054190066E1,-1.879212665E0,1.112183915E1
7.094382375E0,1.658346958E0,-9.027397547E0,-1.518250009E0,9.303177103E0
7.104393375E0,1.735903695E0,-8.229844349E0,-9.795933938E-1,8.467780280E0
7.114405375E0,2.363825220E0,-8.257246740E0,-6.812903783E-1,8.615912603E0
7.124416375E0,2.798274513E0,-8.541593914E0,-3.263950861E-1,8.994203722E0
7.134428375E0,2.681906443E0,-8.869249660E0,1.615036047E-1,9.267270100E0
7.144439375E0,2.255339197E0,-8.658330066E0,4.391440219E-1,8.958017744E0
7.154451375E0,1.998853422E0,-7.302392331E0,4.314289132E-1,7.583302689E0
7.164462375E0,1.321642938E0,-5.487103767E0,3.561723241E-1,5.655254771E0
7.174474375E0,6.485046747E-1,-3.382204365E0,6.171698114E-1,3.498680216E0
7.184485375E0,5.698698202E-1,-1.159908076E0,8.952590024E-1,1.572140909E0
7.194496375E0,4.745881986E-1,1.038172554E0,9.410095181E-1,1.479369840E0
7.204508375E0,3.049451236E-1,3.170608833E0,9.033175620E-1,3.310851027E0
7.214519375E0,5.562576849E-1,5.268979819E0,1.055489010E0,5.402372441E0
7.224531375E0,8.557933666E-1,7.324919899E0,1.662280964E0,7.559762683E0
7.234542375E0,8.232357775E-1,9.033407316E0,2.322922193E0,9.363553406E0
7.244554375E0,9.822537307E-1,1.017975336E1,2.486064187E0,1.052486180E1
7.254565375E0,9.890620825E-1,1.035290462E1,1.945133590E0,1.058037913E1
7.264577375E0,6.417469744E-1,1.012637413E1,1.450259171E0,1.024980701E1
7.274588375E0,4.468407849E-1,9.987265359E0,1.316349746E0,1.008354663E1
7.284600375E0,3.733698624E-1,9.950799783E0,1.500707778E0,1.007025050E1
7.294611375E0,4.986556672E-1,9.867804404E0,1.608975992E0,1.001054569E1
7.304623375E0,7.018045304E-1,9.786916362E0,1.542023034E0,9.932476857E0
7.314634375E0,9.278996220E-1,9.726608765E0,1.693476444E0,9.916439796E0
7.324646292E0,1.041452915E0,9.669220682E0,2.153985608E0,9.960828618E0
7.334657292E0,1.136303305E0,9.650245882E0,2.399370006E0,1.000876652E1
7.344669292E0,1.338645033E0,9.637491351E0,2.368795938E0,1.001421012E1
7.354680292E0,1.570142148E0,9.599808385E0,2.227851290E0,9.979227864E0
7.364692292E0,1.804597808E0,9.543940578E0,2.149409723E0,9.948031824E0
7.374703292E0,1.829255955E0,9.352461807E0,2.159295026E0,9.771247321E0
7.384714292E0,1.783937110E0,9.253143926E0,2.400144031E0,9.724391780E0
7.394726292E0,1.917486784E0,8.990814443E0,3.077481984E0,9.694451778E0
7.404737292E0,2.117895277E0,8.082750623E0,4.891296465E0,9.681999749E0
7.414749292E0,2.235057253E0,6.094357578E0,3.562120267E0,7.404415980E0
7.424760292E0,2.213007841E0,-1.798747376E0,4.074702029E-1,2.880785968E0
7.434772292E0,-3.611512282E-1,-6.962988945E0,9.001747566E-1,7.030217624E0
7.444783292E0,-1.190460070E0,-7.871900026E0,1.541894395E0,8.109342978E0
7.454795292E0,-9.038604029E-1,-5.775750398E0,4.779898529E-1,5.865554585E0
7.464806292E0,-2.258442461E-1,-1.546141813E0,-3.288852398E0,3.641168799E0
7.474818292E0,1.068509152E0,3.141132435E0,-7.014137464E0,7.759287927E0
7.484829292E0,2.903790151E-1,6.655162277E0,-6.312842299E0,9.177553203E0
7.494841292E0,6.415098698E-1,9.127186130E0,-3.096717569E0,9.659540427E0
7.504852292E0,1.488351734E0,1.023671343E1,1.088857974E0,1.040149529E1
7.514864292E0,1.970268138E0,1.002930918E1,4.121547947E0,1.102071489E1
7.524875292E0,2.269830352E0,8.692220528E0,5.640869166E0,1.060783826E1
7.534887292E0,2.576441091E0,6.436845371E0,5.218277442E0,8.677640606E0
7.544898292E0,-8.903010752E-2,2.425194672E0,3.549548169E0,4.299859040E0
7.554909292E0,-3.431569191E0,-1.759354684E0,2.850924012E-1,3.866816998E0
7.564921292E0,-5.894748838E0,-6.283728427E0,-1.753027412E0,8.792406492E0
7.574932292E0,-5.937222428E0,-1.035345893E1,-3.774243218E-1,1.194098703E1
7.584944292E0,-4.847536488E0,-1.588745562E1,1.160930169E0,1.665105447E1
7.594955292E0,-4.183044576E0,-2.221323546E1,2.424819573E0,2.273335527E1
7.604967292E0,-2.237420843E0,-2.615514759E1,3.371855378E0,2.646634101E1
7.614978292E0,1.097065930E-1,-2.462820102E1,2.768739642E0,2.478358812E1
7.624990292E0,2.348586646E0,-1.826633683E1,1.345718264E0,1.846580294E1
7.635001292E0,2.572312665E0,-1.222516670E1,1.534060881E-1,1.249379953E1
7.645013292E0,3.679129850E-1,-9.036171294E0,2.767569029E-1,9.047891799E0
7.655024292E0,-6.186193362E-1,-8.147600337E0,6.831819525E-1,8.199562105E0
7.665036292E0,-5.739342198E-1,-8.722292174E0,1.022082771E0,8.800706474E0
7.675047292E0,-4.143572362E-1,-9.942129532E0,1.295138094E0,1.003469054E1
7.685058292E0,-5.198221858E-1,-1.132172510E1,1.665093767E0,1.145531369E1
7.695070292E0,-9.933651216E-1,-1.210710557E1,1.763020596E0,1.227505687E1
7.705081292E0,-1.133660948E0,-1.154420698E1,1.829312234E0,1.174309521E1
7.715093292E0,-9.800615365E-1,-9.607310362E0,1.884159994E0,9.839257690E0
7.725104292E0,-1.188719500E0,-7.301880700E0,1.731275770E0,7.597883363E0
7.735116292E0,-9.420969540E-1,-5.116323636E0,1.548935320E0,5.428030476E0
7.745127292E0,-3.272316399E-1,-3.160823518E0,1.164764481E0,3.384458916E0
7.755139292E0,2.849199814E-1,-1.175228950E0,8.296012026E-1,1.466485812E0
7.765150292E0,4.480029190E-1,6.457325828E-1,6.166112562E-1,9.989427537E-1
7.775162292E0,7.257199348E-1,2.459201494E0,4.619867545E-1,2.605335520E0
7.785173292E0,1.302870452E0,4.208114805E0,3.027678032E-1,4.415582631E0
7.795185292E0,1.700587536E0,5.835024208E0,2.300445934E-1,6.082139918E0
7.805196292E0,1.866540433E0,7.236947370E0,2.699255278E-1,7.478652300E0
7.815208292E0,1.938899581E0,8.466696344E0,4.475808232E-1,8.697390825E0
7.825219292E0,1.941451013E0,9.355430439E0,7.103870004E-1,9.581125217E0
7.835231292E0,1.783843116E0,9.785303115E0,6.336738700E-1,9.966734465E0
7.845242292E0,1.819637431E0,9.894542552E0,5.450189710E-1,1.007522200E1
7.855253292E0,1.673272560E0,9.827887802E0,4.996761525E-1,9.981828288E0
7.865265292E0,1.441888881E0,9.762165098E0,5.351172594E-1,9.882573624E0
7.875276292E0,1.255854160E0,9.723119146E0,6.610498758E-1,9.826148917E0
7.885288292E0,1.162361129E0,9.694231562E0,8.371295658E-1,9.799489522E0
7.895299292E0,1.155311726E0,9.685759531E0,1.054765271E0,9.811279869E0
7.905311292E0,1.139376163E0,9.694909839E0,8.895592828E-1,9.802079909E0
7.915322292E0,1.140687255E0,9.708009941E0,1.078664084E0,9.834131412E0
7.925334292E0,1.237404587E0,9.678326551E0,1.575120760E0,9.883429584E0
7.935345292E0,1.474801104E0,9.343303313E0,2.081795883E0,9.685361594E0
7.945357292E0,1.255731661E0,8.953160713E0,2.552617196E0,9.394243094E0
7.955368292E0,1.202349214E0,8.744275950E0,3.088474749E0,9.351293055E0
7.965380292E0,1.279364791E0,8.380802500E0,3.418551242E0,9.141177026E0
7.975391292E0,1.128797234E0,6.548032515E0,3.029062361E0,7.302474361E0
7.985403292E0,4.560055646E-1,-1.953359452E0,2.599171557E0,3.283176360E0
7.995414292E0,9.482612349E-2,-8.668383184E0,4.623892769E0,9.824980578E0
8.005425292E0,-1.805748686E0,-1.156690119E1,2.451462704E0,1.196091973E1
8.015437292E0,-2.636194080E0,-1.027394031E1,2.712019896E0,1.094798706E1
8.025448292E0,-2.238242231E0,-6.369362070E0,1.021079462E0,6.827964904E0
8.035460292E0,-1.039984607E0,-2.248477782E0,-2.090984052E0,3.241825816E0
8.045471292E0,1.013271309E0,1.852059365E0,-5.361147140E0,5.761834890E0
8.055483292E0,3.382217229E0,5.349426396E0,-8.865392252E0,1.089270104E1
8.065494292E0,3.690012614E0,8.270332809E0,-1.108967835E1,1.431766614E1
8.075506292E0,2.823868945E0,1.063644897E1,-1.084547406E1,1.545097376E1
8.085517292E0,3.163600361E0,1.252677894E1,-8.418674331E0,1.542085067E1
8.095529292E0,3.382877964E0,1.279592277E1,-3.869831160E0,1.378967353E1
8.105540292E0,2.751367564E0,1.209120231E1,1.218913499E0,1.246005405E1
8.115552292E0,1.932389291E0,1.071500631E1,4.902565804E0,1.194071355E1
8.125563292E0,1.527262469E0,9.488904245E0,6.088476448E0,1.137723077E1
8.135575292E0,1.414922546E0,7.525352511E0,5.127412296E0,9.215383502E0
8.145586292E0,-1.858756948E-1,5.146884694E0,3.252754904E0,6.091419070E0
8.155597292E0,-2.182513003E0,2.025438665E0,2.830282756E0,4.108073183E0
8.165609292E0,-3.226626914E0,-3.664317902E0,2.441989338E0,5.459089563E0
8.175620292E0,-4.187488752E0,-1.197042924E1,2.902324546E0,1.300960130E1
8.185632292E0,-4.468625804E0,-2.038624954E1,3.763900955E0,2.120695022E1
8.195643292E0,-2.745825281E0,-2.656492046E1,6.044444575E0,2.738192590E1
8.205655292E0,-2.196697325E-1,-2.777192143E1,8.104365440E0,2.893110115E1
8.215666292E0,1.614879049E0,-2.253181984E1,7.174552317E0,2.370158097E1
8.225678292E0,2.915573167E0,-1.482861725E1,2.274317213E0,1.528270183E1
8.235689292E0,1.653118962E0,-9.796885280E0,-9.769332030E-1,9.983294145E0
8.245701292E0,5.068534635E-2,-7.112090605E0,-1.908978793E0,7.364007184E0
8.255712292E0,-3.051739325E-1,-6.127813007E0,-1.949624251E0,6.437721499E0
8.265724292E0,-3.262527063E-1,-7.087767942E0,-9.469302624E-1,7.158182182E0
8.275735292E0,-4.763994833E-1,-9.444192342E0,-4.906691015E-2,9.456327671E0
8.285746292E0,-7.521147779E-1,-1.175497104E1,5.288031802E-1,1.179087162E1
8.295758292E0,-7.438469611E-1,-1.282775501E1,1.031154141E0,1.289061232E1
8.305769292E0,-4.732611730E-1,-1.227047092E1,1.452495731E0,1.236520023E1
8.315781292E0,-5.596906583E-1,-1.053403031E1,1.456023063E0,1.064889907E1
8.325792375E0,-6.820850149E-1,-8.431052302E0,1.348507678E0,8.565416268E0
8.335804375E0,-8.827425988E-1,-6.347711000E0,1.340845340E0,6.547559519E0
8.345815375E0,-9.583028776E-1,-4.457810794E0,1.481649363E0,4.794341072E0
8.355827375E0,-7.979413073E-1,-2.767183698E0,1.618055549E0,3.303349770E0
8.365838375E0,-5.797043619E-1,-1.179018531E0,1.608184133E0,2.076631419E0
8.375850375E0,1.542700142E-2,3.623110235E-1,1.483167739E0,1.526857495E0
8.385861375E0,7.703889348E-1,1.813525044E0,1.216210769E0,2.315500126E0
8.395873375E0,1.343899487E0,3.376119168E0,9.825694804E-1,3.764264769E0
8.405884375E0,2.122138455E0,4.851323730E0,8.986188126E-1,5.370877891E0
8.415896375E0,1.693881364E0,6.006826513E0,8.257437214E-1,6.295478658E0
8.425907375E0,1.403754803E0,6.992827286E0,8.429082229E-1,7.181967368E0
8.435918375E0,1.764753711E0,8.038201856E0,1.170424293E0,8.312456783E0
8.445930375E0,1.657447948E0,9.045782948E0,1.322741922E0,9.291015500E0
8.455941375E0,1.187340727E0,9.768944945E0,1.107455628E0,9.902955180E0
8.465953375E0,1.414424217E0,1.012958542E1,8.792504954E-1,1.026558221E1
8.475964375E0,1.567696112E0,1.011483757E1,6.116655350E-1,1.025386488E1
8.485976375E0,1.937439238E0,1.003087272E1,6.591952121E-1,1.023751028E1
8.495987375E0,2.375623440E0,9.899153666E0,5.055514348E-1,1.019276274E1
8.505999375E0,2.516208338E0,9.810813932E0,4.678778609E-1,1.013914612E1
8.516010375E0,2.553346928E0,9.743991952E0,5.356587847E-1,1.008721419E1
8.526022375E0,2.500588671E0,9.670854394E0,6.129917566E-1,1.000770340E1
8.536033375E0,2.282184641E0,9.500594584E0,8.132787001E-1,9.804646165E0
8.546045375E0,1.913539914E0,9.275418309E0,1.018340626E0,9.525336605E0
8.556056375E0,1.659734794E0,8.842936020E0,1.281403569E0,9.088136891E0
8.566068375E0,1.411066161E0,7.874514901E0,1.675109171E0,8.173437672E0
8.576079375E0,1.002655105E0,5.673866174E0,2.229871942E0,6.178220091E0
8.586090375E0,7.870270407E-1,2.235884634E0,3.104378006E0,3.905861552E0
8.596102375E0,7.563312051E-1,-9.592269570E-1,5.128148460E0,5.271627821E0
8.606113375E0,3.951951065E-1,-2.793892025E0,4.611873232E0,5.406605823E0
8.616125375E0,-1.936777626E-1,-3.038098063E0,3.295021795E0,4.486058353E0
8.626136375E0,-2.377043729E-1,-1.017493291E0,1.882397059E0,2.152954866E0
8.636148375E0,-2.256503012E-1,1.741464543E0,7.681721091E-1,1.916691212E0
8.646159375E0,7.367346273E-1,4.072933611E0,2.573744794E-1,4.147023961E0
8.656171375E0,1.065500101E0,5.960409561E0,-8.473926719E-1,6.113906030E0
8.666182375E0,1.719322453E0,7.930189750E0,-2.491974553E0,8.488457830E0
8.676194375E0,2.290420152E0,9.027380006E0,-3.353161830E0,9.898651853E0
8.686205375E0,2.296085812E0,8.500328359E0,-3.643716407E0,9.529127007E0
8.696217375E0,1.624610862E0,6.692916579E0,-3.416711708E0,7.688199508E0
8.706228375E0,1.679119191E0,5.327428586E0,-2.623621982E0,6.171250190E0
8.716239375E0,1.793584577E0,3.567130162E0,-4.513813671E-1,4.018097605E0
8.726251375E0,8.644542807E-2,8.074227136E-1,2.161325617E0,2.308837949E0
8.736262375E0,-2.332133604E0,-2.039698269E0,8.202713853E-1,3.205005667E0
8.746274375E0,-3.794840327E0,-4.283470212E0,-1.299175597E0,5.868286581E0
8.756285375E0,-4.053084068E0,-6.471905276E0,-9.014690378E-1,7.689323428E0
8.766297375E0,-2.716593003E0,-8.520619951E0,-3.917365515E-1,8.951776328E0
8.776308375E0,-4.849287802E-1,-1.026277797E1,3.674653441E-2,1.027429404E1
8.786320375E0,1.283236087E0,-1.250077638E1,7.907043546E-2,1.256671624E1
8.796331375E0,1.543715072E0,-1.424664037E1,-3.089370543E-1,1.433336178E1
8.806343375E0,7.218980484E-1,-1.518900103E1,-2.685994524E-1,1.520851849E1
8.816354375E0,1.707079261E-1,-1.459684180E1,4.733338612E-1,1.460551186E1
8.826366375E0,7.903914555E-1,-1.197420888E1,1.390524015E0,1.208056100E1
8.836377375E0,8.110803663E-1,-9.528852423E0,2.497827908E0,9.884129912E0
8.846389375E0,-2.473516940E-1,-8.455082020E0,3.381710275E0,9.109641003E0
8.856400375E0,-1.077825009E0,-8.323225552E0,3.242700325E0,8.997382716E0
8.866411375E0,-1.957807283E0,-8.914293686E0,2.795242147E0,9.545209266E0
8.876423375E0,-2.873788964E0,-9.996914434E0,2.645380349E0,1.073289329E1
8.886434375E0,-3.150194157E0,-1.105907285E1,2.838327355E0,1.184410899E1
8.896446375E0,-2.660670233E0,-1.103045892E1,3.216478194E0,1.179389342E1
8.906457375E0,-2.067842380E0,-9.846712328E0,3.456977389E0,1.063881612E1
8.916469375E0,-1.569808564E0,-8.304754198E0,3.380061068E0,9.102639949E0
8.926480375E0,-1.171014862E0,-6.788155442E0,2.845182923E0,7.452878369E0
8.936492375E0,-8.384293288E-1,-5.347808472E0,2.108839256E0,5.809408076E0
8.946503375E0,-4.743354527E-1,-4.028034596E0,1.506112944E0,4.326480444E0
8.956515375E0,3.761562251E-2,-2.827631629E0,1.041910533E0,3.013717492E0
8.966526375E0,3.409249784E-1,-1.643520173E0,7.246834427E-1,1.828265432E0
8.976538375E0,7.483123335E-1,-3.436578208E-1,4.012112336E-1,9.159926311E-1
8.986549375E0,1.123135229E0,1.007938356E0,1.634168136E-1,1.517918815E0
8.996560375E0,1.451999887E0,2.348407867E0,-5.582746089E-2,2.761600964E0
9.006572375E0,1.794879151E0,3.598210452E0,-1.872940649E-1,4.025392985E0
9.016583375E0,2.334556690E0,4.956214592E0,-7.587113142E-2,5.479048682E0
9.026595375E0,2.378629493E0,6.130662355E0,1.102129984E-1,6.576856854E0
9.036606375E0,2.142012556E0,7.043705664E0,1.040412623E-1,7.362936361E0
9.046618375E0,2.204306161E0,7.899026429E0,1.379730932E-1,8.201988829E0
9.056629375E0,2.487184514E0,8.624753015E0,2.879953976E-1,8.980834745E0
9.066641375E0,2.649647647E0,9.149329535E0,2.858229377E-1,9.529562338E0
9.076652375E0,2.173198681E0,9.291542006E0,-1.494036689E-3,9.542303055E0
9.086664375E0,1.878184871E0,9.308826960E0,-2.942307222E-1,9.500968872E0
9.096675375E0,1.835478562E0,9.127988952E0,-4.943411529E-1,9.323815584E0
9.106687375E0,1.664886776E0,8.809046143E0,-6.138336825E-1,8.985985406E0
9.116698375E0,1.693813536E0,8.411243105E0,-6.369424635E-1,8.603703305E0
9.126709375E0,1.892767973E0,8.109853052E0,-4.535088766E-1,8.340141331E0
9.136721375E0,1.948061290E0,7.676767915E0,-3.275972736E-1,7.926854886E0
9.146732375E0,1.770614083E0,7.069867276E0,-2.124808367E-1,7.291313025E0
9.156744375E0,2.068293200E0,6.224337673E0,2.556029192E-1,6.563958340E0
9.166755375E0,2.149276845E0,4.778890761E0,9.282981829E-1,5.321552910E0
9.176767375E0,1.924621557E0,2.994945611E0,1.700682553E0,3.945400930E0
9.186778375E0,1.667846636E0,1.203777396E0,2.962930351E0,3.606902922E0
9.196790375E0,1.001388744E0,-2.885320258E-1,3.823624123E0,3.963096212E0
9.206801375E0,-3.350577360E-1,-9.587299436E-1,3.122951102E0,3.283938242E0
9.216813375E0,-1.279491237E0,-5.439074153E-1,2.188846707E0,2.593064406E0
9.226824375E0,-8.443798209E-1,9.170767182E-1,9.483482122E-1,1.566324143E0
9.236836375E0,9.228857077E-1,3.104532958E0,7.098987579E-2,3.239580602E0
9.246847375E0,1.281217920E0,5.067780637E0,6.149516702E-3,5.227232323E0
9.256858375E0,1.361839183E0,6.564087215E0,-3.430128729E-1,6.712637690E0
9.266870375E0,1.566043981E0,7.538171362E0,-8.255068360E-1,7.743254017E0
9.276881375E0,5.609680191E-1,7.757539013E0,-1.245544642E0,7.876895208E0
9.286893375E0,3.336925939E-1,7.532369755E0,-1.869491669E0,7.768072089E0
9.296904375E0,-3.280427583E-1,6.300304699E0,-2.556354736E0,6.807084610E0
9.306916375E0,-1.648623623E0,5.149664460E0,-1.953083464E0,5.749046783E0
9.316927375E0,-1.989619499E0,4.610355295E0,-5.963551855E-1,5.056639319E0
9.326939542E0,-1.361453852E0,3.807444293E0,2.721361408E-1,4.052683890E0
9.336950542E0,-1.557602063E0,2.697422322E0,5.838807356E-1,3.169089472E0
9.346962542E0,-1.934363018E0,1.713325403E0,1.836797547E-1,2.590556402E0
9.356973542E0,-2.007423101E0,5.080569667E-1,5.629102814E-1,2.145865180E0
9.366985542E0,-1.535846328E0,-1.052460226E0,1.852280974E0,2.626298018E0
9.376996542E0,-1.783693500E-1,-2.661268403E0,2.531649665E0,3.677419634E0
9.387007542E0,9.963142379E-1,-4.554043100E0,2.010264263E0,5.076722666E0
9.397019542E0,1.780180859E0,-6.580348322E0,1.295760238E0,6.938949670E0
9.407030542E0,2.301859645E0,-8.293147475E0,1.023907979E0,8.667366406E0
9.417042542E0,2.585699573E0,-9.411651417E0,9.583603996E-1,9.807317642E0
9.427053542E0,2.274682079E0,-1.034253750E1,9.089137128E-1,1.062865865E1
9.437065542E0,1.039192309E0,-1.150289055E1,1.266567137E0,1.161897603E1
9.447076542E0,2.369836304E-1,-1.155299768E1,1.446615186E0,1.164562631E1
9.457088542E0,3.334926557E-1,-1.047244743E1,1.197959124E0,1.054601719E1
9.467099542E0,2.674278896E-1,-9.706341730E0,1.268819192E0,9.792573186E0
9.477111542E0,7.427498773E-3,-9.606019297E0,1.765031161E0,9.766831467E0
9.487122542E0,-3.158655663E-1,-1.006152617E1,2.409966769E0,1.035094294E1
9.497134542E0,-4.807395060E-1,-1.080672691E1,3.022981841E0,1.123186877E1
9.507145542E0,-5.441077555E-1,-1.117850106E1,3.541837738E0,1.173880547E1
9.517156542E0,-5.497838670E-1,-1.069083392E1,3.755745259E0,1.134468222E1
9.527168542E0,-6.674650023E-1,-9.566927152E0,3.479520452E0,1.020189528E1
9.537179542E0,-9.450797649E-1,-8.411271756E0,2.824600432E0,8.923062026E0
9.547191542E0,-1.338189389E0,-7.351343467E0,2.006149285E0,7.736771714E0
9.557202542E0,-1.616234872E0,-6.377420118E0,1.308139086E0,6.707826055E0
9.567214542E0,-1.625648012E0,-5.442493020E0,8.158546910E-1,5.738386586E0
9.577225542E0,-1.529546245E0,-4.546903650E0,4.667229992E-1,4.819924779E0
9.587237542E0,-1.475602465E0,-3.756218006E0,2.685471198E-1,4.044588224E0
9.597248542E0,-1.223256079E0,-3.034754040E0,9.952604234E-2,3.273529128E0
9.607260542E0,-5.526814547E-1,-2.254717346E0,9.506739423E-2,2.323412342E0
9.617271542E0,1.434290936E-2,-1.228185428E0,-7.457100302E-3,1.228291811E0
9.627282542E0,5.870434580E-1,2.869064999E-1,-1.503056020E-1,6.704678480E-1
9.637294542E0,9.901370200E-1,1.913102542E0,-1.874351290E-1,2.162282263E0
9.647305542E0,7.672068800E-1,3.222074271E0,-1.349929136E-1,3.314904538E0
9.657317542E0,5.057756755E-1,4.293394691E0,1.326803398E-1,4.325118621E0
9.667328542E0,7.877396701E-1,5.355050249E0,3.674589121E-1,5.425138063E0
9.677340542E0,1.130715779E0,6.353773978E0,5.760659319E-1,6.479260289E0
9.687351542E0,1.518818359E0,7.098101726E0,5.839380383E-1,7.282227747E0
9.697363542E0,1.967506206E0,7.633727145E0,5.442219955E-1,7.901964843E0
9.707374542E0,2.347808820E0,7.996635754E0,6.051528331E-1,8.356111511E0
9.717386542E0,2.305988364E0,7.983800531E0,5.548873899E-1,8.328658552E0
9.727397542E0,2.420417497E0,7.563799708E0,4.137834781E-1,7.952402383E0
9.737409542E0,2.563705856E0,7.185457959E0,3.473497162E-1,7.637018110E0
9.747420542E0,2.661721562E0,6.775717830E0,3.669735932E-1,7.289018000E0
9.757432542E0,2.707205299E0,6.395073447E0,2.395043103E-1,6.948617649E0
9.767443542E0,2.421937481E0,6.306676410E0,1.341134924E-1,6.757065556E0
9.777454542E0,1.926359934E0,6.108549355E0,-7.125649055E-2,6.405491027E0
9.787466542E0,2.155092193E0,5.649502580E0,-1.784079051E-1,6.049225665E0
9.797477542E0,1.968309613E0,5.164320506E0,6.652373593E-2,5.527103620E0
9.807489542E0,1.418124627E0,4.548401121E0,3.589161301E-1,4.777850040E0
9.817500542E0,1.241274421E0,3.861639211E0,7.030587582E-1,4.116711212E0
9.827512542E0,9.949864083E-1,2.982374098E0,9.937097418E-1,3.297273459E0
9.837523542E0,6.193780124E-1,1.799546106E0,1.866110809E0,2.665401444E0
9.847535542E0,-4.376129285E-1,8.091698617E-1,1.737018321E0,1.965577164E0
9.857546542E0,-1.496112159E0,4.662938136E-1,8.927294970E-1,1.803537487E0
9.867558542E0,-1.501178771E0,7.956703949E-1,1.092885536E-1,1.702519623E0
9.877569542E0,-8.681621280E-1,1.660829101E0,-7.265913892E-1,2.009973589E0
9.887580542E0,-6.872788042E-2,2.608754559E0,-1.472340011E0,2.996349275E0
9.897592542E0,7.716232089E-1,3.500615160E0,-2.344037658E0,4.283015458E0
9.907603542E0,1.026038412E0,4.562076589E0,-3.799429514E0,6.025027989E0
9.917615542E0,1.083728796E0,5.955186828E0,-5.018069948E0,7.862553292E0
9.927626542E0,1.269407568E0,7.162357948E0,-4.930044209E0,8.787269363E0
9.937638542E0,5.719563626E-2,7.923366634E0,-3.535750494E0,8.676666509E0
9.947649542E0,8.536934853E-2,8.785860178E0,-1.708995101E0,8.950938010E0
9.957661542E0,-1.687564179E-1,9.272951953E0,1.261598027E0,9.359900974E0
9.967672542E0,-3.803392319E-1,8.698626738E0,5.165913872E0,1.012410150E1
9.977684542E0,-2.218875449E-1,7.098402858E0,7.099726667E0,1.004204541E1
9.987695542E0,-7.897313780E-1,5.161736621E0,5.607934724E0,7.662645266E0
9.997707542E0,-5.779868153E-1,3.052292179E0,3.999834645E0,5.064507231E0
1.000771854E1,-1.847053929E-1,6.425306475E-1,4.272655202E0,4.324643823E0
1.001772954E1,-4.207138174E-1,-1.634754027E0,4.355233090E0,4.670918123E0
1.002774154E1,1.399213855E-1,-4.203562163E0,3.336802490E0,5.368776742E0
1.003775254E1,-1.189723686E0,-8.202607434E0,2.300356033E-1,8.291629969E0
1.004776454E1,-1.381679956E0,-1.113568541E1,-3.811983194E0,1.185089638E1
1.005777554E1,6.391100264E-1,-1.028592359E1,-6.539481547E0,1.220547028E1
1.006778754E1,2.333110674E0,-7.047469516E0,-7.403529866E0,1.048439252E1
1.007779854E1,2.609033764E0,-4.227932773E0,-5.208986217E0,7.198333843E0
1.008781054E1,1.955723628E0,-2.460869704E0,-6.727174830E-1,3.214542491E0
1.009782154E1,7.411720061E-1,-2.809665474E0,2.407776986E0,3.773717800E0
1.010783354E1,8.767340000E-1,-5.127322834E0,4.149734450E0,6.654201526E0
1.011784454E1,1.293762610E-1,-7.673343201E0,6.276505362E0,9.914204640E0
1.012785654E1,-1.773025328E0,-9.598947675E0,7.877289405E0,1.254332905E1
1.013786754E1,-3.471123851E0,-1.065206220E1,7.200703404E0,1.331785491E1
1.014787854E1,-4.108919715E0,-1.097271649E1,5.031351314E0,1.275140088E1
1.015789054E1,-3.526347294E0,-1.086854250E1,2.878762313E0,1.178336173E1
1.016790154E1,-2.285589767E0,-1.085835197E1,1.329411841E0,1.117564602E1
1.017791354E1,-1.032051250E0,-1.087562231E1,4.456385243E-1,1.093356685E1
1.018792454E1,-8.617352340E-2,-1.035097270E1,9.810896963E-2,1.035179632E1
1.019793654E1,3.914104231E-1,-9.461479050E0,2.476263669E-1,9.472808810E0
1.020794754E1,5.241300123E-1,-8.448764103E0,6.146905920E-1,8.487294720E0
1.021795954E1,4.517558082E-1,-7.367888163E0,7.741152191E-1,7.422204098E0
1.022797054E1,1.721845673E-1,-6.433351659E0,5.463164681E-1,6.458801962E0
1.023798254E1,-3.366974049E-1,-5.645052849E0,2.910118300E-1,5.662567854E0
1.024799354E1,-8.209096089E-1,-4.867792413E0,2.454748839E-1,4.942626172E0
1.025800454E1,-1.057868754E0,-4.062575853E0,3.019110399E-1,4.208890488E0
1.026801654E1,-1.012003706E0,-3.230164479E0,3.188724969E-1,3.399969666E0
1.027802754E1,-7.214271283E-1,-2.178702373E0,3.018601692E-1,2.314804677E0
1.028803954E1,-2.695426814E-1,-9.125667608E-1,2.761502543E-1,9.908028628E-1
1.029805054E1,3.641977007E-1,5.963809133E-1,3.363426617E-1,7.755234006E-1
1.030806254E1,1.162174237E0,2.335349280E0,4.392369926E-1,2.645266405E0
1.031807354E1,2.082181653E0,4.083151621E0,5.648006862E-1,4.618073993E0
1.032808542E1,2.784271893E0,5.665770119E0,8.290379696E-1,6.367136324E0
1.033809642E1,3.299914745E0,6.904474688E0,1.169838987E0,7.741429539E0
1.034810842E1,3.711978557E0,7.775094693E0,1.395833872E0,8.728071637E0
1.035811942E1,3.593691139E0,8.239821453E0,1.314930481E0,9.085060030E0
1.036813142E1,2.924346914E0,8.028985475E0,1.116808322E0,8.617637348E0
1.037814242E1,2.319467658E0,7.473280717E0,9.434629367E-1,7.881622752E0
1.038815342E1,2.200481205E0,7.077244123E0,7.442634290E-1,7.448720022E0
1.039816542E1,2.403707909E0,6.645972208E0,4.615061134E-1,7.082354565E0
1.040817642E1,2.703293511E0,6.327750360E0,9.161421139E-2,6.881614170E0
1.041818842E1,2.900964776E0,5.863310698E0,1.744931942E-1,6.544039796E0
1.042819942E1,3.187750823E0,5.379083474E0,6.859813070E-1,6.290219765E0
1.043821142E1,2.766872626E0,5.176329517E0,8.392005765E-1,5.929100185E0
1.044822242E1,2.251684103E0,4.946224625E0,9.444598138E-1,5.516087715E0
1.045823442E1,1.518710624E0,4.772817258E0,9.427512574E-1,5.096572032E0
1.046824542E1,1.056595231E0,4.700927496E0,7.667348635E-1,4.878831331E0
1.047825742E1,7.184250216E-1,4.448447063E0,5.352354463E-1,4.537762969E0
1.048826842E1,7.425463942E-1,3.918278850E0,4.379260834E-1,4.011989974E0
1.049828042E1,8.080450036E-1,3.161011214E0,6.578994691E-1,3.328326957E0
1.050829142E1,6.073939978E-1,2.252396586E0,1.134252248E0,2.593982654E0
1.051830242E1,-4.527528316E-2,1.448845314E0,1.506197144E0,2.090414416E0
1.052831442E1,-6.999625844E-1,1.075757287E0,1.459274408E0,1.943369022E0
1.053832542E1,-7.179019882E-1,1.412753375E0,8.282299574E-1,1.788077243E0
1.054833742E1,-7.218884736E-1,2.146324586E0,3.801298285E-1,2.296155675E0
1.055834842E1,-5.815155369E-1,3.063468547E0,-2.331752658E-2,3.118259701E0
1.056836042E1,-3.374477854E-1,4.147718915E0,-6.584391671E-1,4.213191823E0
1.057837142E1,8.160714765E-1,5.118843201E0,-9.001806039E-1,5.261069615E0
1.058838342E1,1.688240701E0,5.767399405E0,-1.205443779E0,6.129122879E0
1.059839442E1,1.493374492E0,5.959250059E0,-1.651707444E0,6.361679504E0
1.060840642E1,8.307616556E-1,5.333243642E0,-1.579413055E0,5.623895294E0
1.061841742E1,-3.184161948E-1,4.840824469E0,-1.244493313E0,5.008366402E0
1.062842842E1,-3.860300345E-1,4.882010502E0,-6.069537024E-1,4.934717675E0
1.063844042E1,-1.522139870E-2,4.856652882E0,6.071865678E-1,4.894485104E0
1.064845142E1,1.302443313E0,4.294903273E0,1.133194194E0,4.628896390E0
1.065846342E1,1.451498488E0,3.326610793E0,-9.232899696E-1,3.745083657E0
1.066847442E1,-2.804141171E-1,2.231874613E0,-2.492868592E0,3.357720981E0
1.067848642E1,-8.188184984E-1,1.362402416E0,-1.867152490E0,2.452113884E0
1.068849742E1,-1.089765827E0,3.593371296E-1,5.762007102E-1,1.284024918E0
1.069850942E1,-1.353172294E0,-7.660051310E-1,2.074044814E0,2.592200033E0
1.070852042E1,-1.072080704E0,-1.968411940E0,2.578172744E0,3.416281209E0
1.071853242E1,-3.157965691E-1,-3.460094540E0,2.723473130E0,4.414667325E0
1.072854342E1,1.044483290E-1,-5.080762625E0,1.859124556E0,5.411229289E0
1.073855542E1,-1.603184106E-2,-6.237703239E0,5.149727610E-1,6.258945251E0
1.074856642E1,-1.021045183E-1,-6.469365245E0,-2.772267267E-1,6.476107370E0
1.075857742E1,-9.518612925E-2,-6.582897708E0,-5.943729794E-1,6.610361705E0
1.076858942E1,-3.559073356E-1,-7.204237461E0,-3.618312594E-1,7.222093138E0
1.077860042E1,-4.363279297E-1,-8.204430596E0,4.791056478E-1,8.229982119E0
1.078861242E1,-2.330825143E-1,-9.245178849E0,1.577403659E0,9.381676913E0
1.079862342E1,-2.240009113E-1,-1.014650375E1,2.674927791E0,1.049556828E1
1.080863542E1,-7.106928098E-1,-1.100380029E1,3.660180120E0,1.161833136E1
1.081864642E1,-9.768556543E-1,-1.126942994E1,4.137421091E0,1.204460674E1
1.082865842E1,-1.039031437E0,-1.093159186E1,3.782052174E0,1.161392292E1
1.083866942E1,-1.254424370E0,-1.060392325E1,2.992794421E0,1.108934566E1
1.084868142E1,-1.251911091E0,-1.046465894E1,2.405010084E0,1.081020081E1
1.085869242E1,-1.113196497E0,-1.003513885E1,1.981219389E0,1.028923945E1
1.086870442E1,-9.970976186E-1,-9.313127587E0,1.559650927E0,9.495317801E0
1.087871542E1,-8.900340767E-1,-8.443442552E0,1.272716361E0,8.585085307E0
1.088872642E1,-7.782446690E-1,-7.483207535E0,1.042498032E0,7.595450081E0
1.089873842E1,-6.087215715E-1,-6.469330747E0,7.730741224E-1,6.543731799E0
1.090874942E1,-4.722938608E-1,-5.477729511E0,4.930685064E-1,5.520117629E0
1.091876142E1,-4.448509774E-1,-4.457290977E0,2.698779461E-1,4.487557169E0
1.092877242E1,-4.818919192E-1,-3.472367261E0,3.308530033E-2,3.505802170E0
1.093878442E1,-3.473502279E-1,-2.445832420E0,-1.330533922E-1,2.473954650E0
1.094879542E1,1.200385499E-1,-1.315500730E0,-1.940199709E-1,1.335138635E0
1.095880742E1,5.700299974E-1,-1.433205181E-1,-2.380796179E-1,6.341583976E-1
1.096881842E1,7.145516067E-1,1.009132358E0,-2.527932590E-1,1.262076284E0
1.097883042E1,1.108317873E0,2.211991156E0,-1.374009432E-1,2.477933091E0
1.098884142E1,1.447709054E0,3.404944187E0,3.905311480E-2,3.700139398E0
1.099885242E1,1.915656606E0,4.682388314E0,3.830464196E-1,5.073581094E0
1.100886442E1,2.216822711E0,5.846058488E0,6.025614202E-1,6.281224645E0
1.101887542E1,2.719062282E0,6.925427601E0,8.091458881E-1,7.483953782E0
1.102888742E1,3.377185700E0,7.896667662E0,1.175531909E0,8.668599581E0
1.103889842E1,4.283325786E0,8.555663484E0,1.367524577E0,9.665214996E0
1.104891042E1,4.278918447E0,8.682974326E0,1.079466176E0,9.740042785E0
1.105892142E1,3.189917217E0,8.216256589E0,8.882885367E-1,8.858414120E0
1.106893342E1,3.085339180E0,7.848529875E0,1.006000589E0,8.492983942E0
1.107894442E1,3.281205702E0,7.462088562E0,1.215266590E0,8.241720054E0
1.108895642E1,3.058322705E0,6.965846479E0,1.329922303E0,7.723020670E0
1.109896742E1,2.589548210E0,6.477366575E0,1.228319914E0,7.083135428E0
1.110897942E1,2.443611209E0,6.095327631E0,1.252577673E0,6.685297712E0
1.111899042E1,2.045502362E0,5.631097299E0,1.472485607E0,6.169404393E0
1.112900142E1,1.359807568E0,5.046076941E0,2.124493421E0,5.641404206E0
1.113901342E1,9.466536891E-1,4.368205723E0,2.897565497E0,5.326655635E0
1.114902442E1,7.044421363E-1,3.429388472E0,2.755032599E0,4.455013876E0
1.115903642E1,5.882622005E-1,2.369660157E0,2.304768927E0,3.357573750E0
1.116904742E1,2.213336308E-1,1.045606704E0,2.491644770E0,2.711194500E0
1.117905942E1,-4.187775850E-3,-2.796378261E-1,2.521874875E0,2.537334770E0
1.118907042E1,-2.744623093E-1,-1.425591522E0,2.115293412E0,2.565561725E0
1.119908242E1,-7.408948481E-1,-2.247302492E0,1.743272502E0,2.939097256E0
1.120909342E1,-1.480008781E0,-2.107794358E0,1.042909384E0,2.778647698E0
1.121910542E1,-2.712780326E0,-9.196629417E-1,-7.095105028E-1,2.950993422E0
1.122911642E1,-3.772530568E0,2.827970767E-1,-1.720234473E0,4.155859444E0
1.123912742E1,-3.584285308E0,1.856089266E0,-2.783850017E0,4.903263142E0
1.124913942E1,-2.892607643E0,3.618168753E0,-3.739113731E0,5.953091264E0
1.125915042E1,-2.094415490E0,5.226730762E0,-4.423370109E0,7.160411568E0
1.126916242E1,-9.052573027E-1,6.750926220E0,-5.051869193E0,8.480322987E0
1.127917342E1,3.192747854E-1,8.546483940E0,-5.674626312E0,1.026380572E1
1.128918542E1,8.143091257E-1,1.045690086E1,-5.511798313E0,1.184861998E1
1.129919642E1,2.299837824E0,1.143384897E1,-4.350333708E0,1.244779336E1
1.130920842E1,2.033320419E0,1.162126510E1,-2.578993109E0,1.207639846E1
1.131921942E1,1.836382249E0,9.780671536E0,-1.638949112E0,1.008563283E1
1.132923167E1,1.775614329E0,7.484903228E0,-7.664635527E-1,7.730721115E0
1.133924267E1,1.983787193E0,5.530252710E0,1.175793645E0,5.991794169E0
1.134925467E1,1.482994661E0,2.598918958E0,3.465365805E0,4.578472789E0
1.135926567E1,-2.528099236E-1,-1.469297120E0,4.113427334E0,4.375274999E0
1.136927667E1,-3.037993690E0,-5.448968811E0,3.695674766E0,7.251115689E0
1.137928867E1,-4.608778886E0,-7.740902515E0,4.029474766E0,9.869097297E0
1.138929967E1,-3.410322163E0,-8.098294276E0,4.376132793E0,9.816476234E0
1.139931167E1,-1.323773371E0,-6.858500955E0,2.907806311E0,7.566158129E0
1.140932267E1,1.275361934E0,-4.833925340E0,1.787569839E-1,5.002532989E0
1.141933467E1,2.651495951E0,-3.587018881E0,-2.533860205E0,5.130066546E0
1.142934567E1,2.740313695E0,-3.284243622E0,-4.103745222E0,5.927588056E0
1.143935767E1,2.578879965E0,-3.959338583E0,-4.045918306E0,6.220646174E0
1.144936867E1,1.899344190E0,-5.506674398E0,-2.304846403E0,6.264446361E0
1.145938067E1,6.718099952E-1,-7.726414869E0,6.061975113E-1,7.779221736E0
1.146939167E1,-2.019482289E-1,-9.755739008E0,3.151251626E0,1.025405352E1
1.147940367E1,-1.017933002E0,-1.105846123E1,4.014593017E0,1.180858626E1
1.148941467E1,-2.098086811E0,-1.183058957E1,3.574612843E0,1.253565614E1
1.149942567E1,-2.069649901E0,-1.144636435E1,3.167032969E0,1.205540565E1
1.150943767E1,-1.640051458E0,-1.019693599E1,3.308385022E0,1.084493816E1
1.151944867E1,-2.047664955E0,-9.341538039E0,3.477861597E0,1.017608893E1
1.152946067E1,-1.861722181E0,-9.095506500E0,3.557792158E0,9.942440999E0
1.153947167E1,-1.241290354E0,-9.181145405E0,3.592074676E0,9.936661068E0
1.154948367E1,-1.131626556E0,-9.234593049E0,3.440231256E0,9.919348696E0
1.155949467E1,-1.146254096E0,-8.902508622E0,3.041175452E0,9.477199289E0
1.156950667E1,-1.222998071E0,-8.142032034E0,2.418161641E0,8.581137200E0
1.157951767E1,-1.293913249E0,-7.095943519E0,1.681139697E0,7.406271437E0
1.158952967E1,-1.359538450E0,-6.028224399E0,1.031061171E0,6.265055574E0
1.159954067E1,-1.444096205E0,-5.075638125E0,4.904439837E-1,5.299816179E0
1.160955267E1,-1.259953059E0,-4.156496755E0,4.009465009E-2,4.343449616E0
1.161956367E1,-8.841968013E-1,-3.182673393E0,-2.758701727E-1,3.314712396E0
1.162957567E1,-5.679940700E-1,-2.078235514E0,-4.313137230E-1,2.197205416E0
1.163958667E1,-2.235286756E-1,-8.366681474E-1,-4.833007327E-1,9.917450559E-1
1.164959767E1,2.910673785E-1,5.830779129E-1,-3.711210233E-1,7.499539221E-1
1.165960967E1,1.114009480E0,2.197094790E0,-1.246034347E-1,2.466529678E0
1.166962067E1,1.722450860E0,3.679707774E0,-1.452191091E-1,4.065485808E0
1.167963267E1,1.972522094E0,5.081839682E0,1.073847002E-1,5.452290293E0
1.168964367E1,2.159155716E0,6.353228433E0,4.268951283E-1,6.723667479E0
1.169965567E1,2.842177162E0,7.567087013E0,8.569240719E-1,8.128535892E0
1.170966667E1,2.857836883E0,8.340919812E0,8.308374502E-1,8.855984746E0
1.171967867E1,1.941083662E0,8.662984450E0,2.662143731E-1,8.881777719E0
1.172968967E1,1.721527731E0,8.786663001E0,-9.090205707E-2,8.954181571E0
1.173970167E1,2.139505855E0,8.654372086E0,-7.277093768E-1,8.944562731E0
1.174971267E1,2.853133675E0,8.397909699E0,-1.088175092E0,8.935848259E0
1.175972467E1,3.546390672E0,7.991929915E0,-9.666190070E-1,8.796714322E0
1.176973567E1,3.921369104E0,7.705587087E0,-6.710001558E-1,8.671992228E0
1.177974767E1,3.554610396E0,7.478096484E0,-4.140553737E-1,8.290272851E0
1.178975867E1,2.992824242E0,7.214736137E0,-1.444694960E-1,7.812188291E0
1.179977067E1,2.710915942E0,6.665477350E0,2.279162800E-1,7.199277698E0
1.180978167E1,2.396962269E0,5.626763343E0,4.753985131E-1,6.134484297E0
1.181979367E1,1.981816535E0,4.311150346E0,8.183681166E-1,4.814908147E0
1.182980467E1,1.415252183E0,2.698515751E0,1.478829836E0,3.387013978E0
1.183981667E1,8.725699054E-1,8.919202423E-1,2.012066667E0,2.367554061E0
1.184982767E1,3.318407442E-1,-1.033099510E0,2.170790505E0,2.426879539E0
1.185983867E1,-4.866256057E-1,-2.780877877E0,2.614333388E0,3.847703901E0
1.186985067E1,-1.276597012E0,-3.720790896E0,2.876736546E0,4.873355925E0
1.187986167E1,-2.004765980E0,-3.037484105E0,2.595776664E0,4.470285540E0
1.188987367E1,-2.774269354E0,-1.175578029E0,1.090736099E0,3.204412487E0
1.189988467E1,-2.972188540E0,4.980547196E-1,-1.255163312E-2,3.013655715E0
1.190989667E1,-2.523054258E0,2.087769983E0,-8.880365217E-1,3.393109954E0
1.191990767E1,-1.667634529E0,3.645258903E0,-2.076354464E0,4.514439639E0
1.192991967E1,-9.634563942E-1,5.092043658E0,-3.339260659E0,6.165048142E0
1.193993067E1,1.493513364E-1,6.489952122E0,-4.400586433E0,7.842636376E0
1.194994267E1,1.801410783E0,7.639676102E0,-5.307904733E0,9.475420013E0
1.195995367E1,3.064744409E0,8.674522176E0,-5.729248077E0,1.083809378E1
1.196996567E1,4.078525596E0,9.668193911E0,-5.258409222E0,1.173708704E1
1.197997667E1,4.526529027E0,9.143827890E0,-4.254461006E0,1.105438791E1
1.198998867E1,2.730531011E0,7.252308590E0,-2.928464524E0,8.284182757E0
1.199999967E1,1.548929473E0,6.150807182E0,-6.744063051E-1,6.378591958E0
1.201001167E1,1.631956134E0,5.820145383E0,2.511979047E0,6.545793446E0
1.202002267E1,8.479833868E-1,5.146348504E0,3.935682503E0,6.534032102E0
1.203003467E1,-3.114080876E-2,4.028745033E0,2.644791534E0,4.819406452E0
1.204004567E1,-4.384594591E-1,2.720166821E0,2.673711570E0,3.839308244E0
1.205005767E1,-8.582032965E-1,1.293228101E0,2.735922729E0,3.145508703E0
1.206006867E1,-9.861321158E-1,-7.729779357E-1,2.559698466E0,2.849913626E0
1.207007967E1,-1.378155839E0,-3.439931002E0,2.401432465E0,4.415803064E0
1.208009167E1,-2.443395008E0,-6.677907361E0,1.825485232E0,7.341459134E0
1.209010267E1,-2.413896975E0,-9.769279990E0,1.271973180E0,1.014315759E1
1.210011467E1,-1.194870040E0,-1.150609132E1,1.626947702E0,1.168181538E1
1.211012567E1,4.938090928E-1,-1.146419134E1,2.049681513E0,1.165644563E1
1.212013767E1,2.106558549E0,-1.009757074E1,2.113116494E0,1.052918730E1
1.213014867E1,2.189115241E0,-8.437438046E0,1.006136245E0,8.774673582E0
1.214016067E1,5.614638264E-1,-7.167031628E0,-6.290297189E-1,7.216457744E0
1.215017167E1,-6.328038043E-1,-6.877623104E0,-9.002054545E-1,6.965092252E0
1.216018367E1,-1.308912380E0,-8.183229761E0,5.139775649E-1,8.303172519E0
1.217019467E1,-1.153672240E0,-9.749884776E0,2.360630594E0,1.009771210E1
1.218020667E1,-3.828551791E-1,-1.098754503E1,3.520127903E0,1.154400383E1
1.219021767E1,-1.624112570E-1,-1.186768664E1,4.107574856E0,1.255947988E1
1.220022967E1,-4.691537233E-1,-1.218955248E1,4.192980749E0,1.289908455E1
1.221024067E1,-8.084467804E-1,-1.145098131E1,3.856548625E0,1.210997632E1
1.222025267E1,-8.233019972E-1,-9.725767350E0,3.096532797E0,1.023996543E1
1.223026367E1,-1.065235734E0,-7.980041356E0,2.217197810E0,8.350554074E0
1.224027567E1,-1.379430824E0,-6.669610162E0,1.550956703E0,6.985126756E0
1.225028667E1,-1.410846013E0,-5.764910830E0,1.104815610E0,6.036994358E0
1.226029767E1,-1.417450590E0,-5.108587185E0,6.680034578E-1,5.343506136E0
1.227030967E1,-1.566548742E0,-4.543768957E0,3.409982148E-1,4.818318283E0
1.228032067E1,-1.523640265E0,-3.771984438E0,1.160786328E-1,4.069744526E0
1.229033267E1,-1.194738989E0,-2.852648356E0,-1.930180505E-2,3.092794279E0
1.230034367E1,-1.038332695E0,-1.798279599E0,-6.854997888E-2,2.077653340E0
1.231035567E1,-7.338447140E-1,-6.679005468E-1,-5.844423607E-2,9.939994635E-1
1.232036667E1,-2.914062247E-1,5.297887284E-1,-1.141098753E-2,6.047511018E-1
1.233037837E1,2.198838137E-1,1.892406322E0,1.691668193E-1,1.912633784E0
1.234038937E1,1.022772450E0,3.320629091E0,4.984995465E-1,3.510148550E0
1.235040137E1,1.667233410E0,4.371749720E0,4.612469356E-1,4.701554168E0
1.236041238E1,2.495572929E0,5.531979977E0,6.787611651E-1,6.106668768E0
1.237042437E1,2.823793516E0,6.516420128E0,1.022939388E0,7.175231432E0
1.238043537E1,2.809606709E0,6.959818000E0,1.106382006E0,7.586635459E0
1.239044737E1,3.412946686E0,7.045477955E0,8.589272549E-1,7.875577485E0
1.240045837E1,3.712273549E0,7.160276340E0,7.431963122E-1,8.099560045E0
1.241047037E1,3.183942532E0,7.108946557E0,5.503774325E-1,7.808810826E0
1.242048138E1,3.029105045E0,6.943935792E0,2.430266547E-1,7.579761449E0
1.243049337E1,3.460995011E0,6.691278774E0,-2.145986982E-1,7.536428245E0
1.244050437E1,4.447092263E0,6.414217815E0,-3.706240100E-1,7.813845528E0
1.245051637E1,4.663191613E0,6.241363596E0,-6.312770963E-2,7.791274649E0
1.246052737E1,3.866781253E0,6.237091035E0,2.616512243E-1,7.343143959E0
1.247053937E1,2.924698624E0,6.222908029E0,4.357263243E-1,6.889724509E0
1.248055038E1,2.052905083E0,6.038513744E0,5.378432679E-1,6.400573639E0
1.249056237E1,1.420499766E0,5.635798461E0,5.333561146E-1,5.836481185E0
1.250057337E1,6.005318516E-1,4.787377410E0,6.189675379E-1,4.864436430E0
1.251058438E1,6.883313030E-2,3.557189895E0,9.459917843E-1,3.681472315E0
1.252059637E1,-2.647578317E-1,1.981158870E0,1.630300788E0,2.579334766E0
1.253060737E1,-8.451757000E-1,3.106684148E-1,2.125248882E0,2.308142031E0
1.254061938E1,-1.106683942E0,-8.972306836E-1,2.078126171E0,2.519599299E0
1.255063037E1,-1.209054070E0,-1.363851941E0,1.808490007E0,2.567594198E0
1.256064237E1,-1.384190896E0,-6.332224649E-1,1.000091393E0,1.821301162E0
1.257065338E1,-1.573181969E0,7.425004935E-1,2.945195746E-1,1.764355483E0
1.258066537E1,-1.745734619E0,1.997512947E0,-2.254897221E-1,2.662422384E0
1.259067637E1,-1.430769524E0,3.330264718E0,-1.140995915E0,3.799952131E0
1.260068838E1,-5.989253291E-1,4.824500797E0,-2.421895089E0,5.431399020E0
1.261069937E1,1.703918695E0,6.230590686E0,-3.812134929E0,7.500398118E0
1.262071137E1,4.200095349E0,7.265756602E0,-5.234200580E0,9.890848075E0
1.263072238E1,4.381970653E0,7.970179442E0,-5.593510228E0,1.067767689E1
1.264073437E1,4.176525223E0,7.894422916E0,-4.646376190E0,1.006747674E1
1.265074537E1,2.382671674E0,6.380491076E0,-3.600177455E0,7.703834654E0
1.266075738E1,1.313223678E0,5.037008495E0,-2.873734585E0,5.945953369E0
1.267076837E1,5.928215669E-1,4.462266372E0,-3.401767979E0,5.642276489E0
1.268078037E1,3.647418572E-1,4.577068266E0,-3.960945983E0,6.063965997E0
1.269079138E1,-5.413884348E-1,4.348372552E0,-3.153767391E0,5.398860439E0
1.270080337E1,-1.274852349E0,3.480221826E0,-1.225905307E-1,3.708398698E0
1.271081437E1,-6.653859517E-1,2.215177304E0,2.887812926E0,3.699893573E0
1.272082638E1,1.218791438E-1,1.194904246E0,2.717430617E0,2.971040195E0
1.273083737E1,-4.454232006E-1,-3.037833184E-1,1.471266462E0,1.566943246E0
1.274084937E1,-6.281580453E-1,-2.288027764E0,1.219434778E0,2.667709646E0
1.275086038E1,-6.113523435E-1,-4.594979457E0,1.929503105E0,5.021012859E0
1.276087137E1,-1.163297488E0,-6.854044792E0,2.791177163E0,7.491452530E0
1.277088337E1,-1.679472071E0,-8.498108171E0,3.053401688E0,9.184864223E0
1.278089437E1,-2.037823506E0,-9.161383570E0,3.590345069E0,1.004859449E1
1.279090637E1,-1.204013697E0,-8.013420771E0,4.409315157E0,9.225325013E0
1.280091737E1,-6.354407524E-1,-5.743419389E0,2.805004073E0,6.423293476E0
1.281092938E1,-1.832663566E0,-4.971602125E0,1.139129995E0,5.419695617E0
1.282094037E1,-2.619055599E0,-5.407001005E0,1.617826338E0,6.221934921E0
1.283095237E1,-2.102793819E0,-6.656836919E0,2.301747086E0,7.350731886E0
1.284096337E1,-8.969973066E-1,-8.335875419E0,2.659216907E0,8.795615824E0
1.285097537E1,-1.213533512E-1,-9.758892412E0,3.109545483E0,1.024304549E1
1.286098637E1,8.664821682E-2,-1.068893007E1,3.461466297E0,1.123576801E1
1.287099838E1,7.126812286E-1,-1.100533343E1,3.862820056E0,1.168531802E1
1.288100937E1,1.560324381E0,-1.065597516E1,4.033695286E0,1.150022245E1
1.289102137E1,1.465144427E0,-9.877628896E0,3.391719539E0,1.054599271E1
1.290103237E1,6.511694701E-1,-8.869368358E0,2.554184250E0,9.252760341E0
1.291104437E1,-1.733691949E-1,-7.788597668E0,1.709781990E0,7.975942889E0
1.292105537E1,-1.021835288E0,-7.090014442E0,9.797039062E-1,7.229956562E0
1.293106738E1,-1.755903950E0,-6.842921634E0,6.860617062E-1,7.097848676E0
1.294107837E1,-1.910772573E0,-6.588533839E0,7.144823903E-1,6.897123680E0
1.295109037E1,-1.607741206E0,-6.255360076E0,7.557067224E-1,6.502726668E0
1.296110137E1,-1.458947548E0,-5.663405505E0,7.683875790E-1,5.898568414E0
1.297111337E1,-1.521520357E0,-4.826264902E0,8.443034416E-1,5.130370884E0
1.298112437E1,-1.357721428E0,-3.769495279E0,8.845042187E-1,4.103029350E0
1.299113537E1,-1.045469953E0,-2.571820037E0,7.780778772E-1,2.883170287E0
1.300114737E1,-7.347098827E-1,-1.242922166E0,6.012878966E-1,1.564033650E0
1.301115838E1,-3.361353779E-1,2.767779529E-2,4.302618089E-1,5.466976101E-1
1.302117037E1,1.196112281E-1,1.396042618E0,3.640564173E-1,1.447680528E0
1.303118137E1,4.547177884E-1,2.834935970E0,3.754409462E-1,2.895614983E0
1.304119337E1,6.356101754E-1,3.972041659E0,2.396286915E-1,4.029706832E0
1.305120437E1,1.094876805E0,4.756811675E0,2.736337589E-1,4.888853440E0
1.306121637E1,2.097863886E0,5.345257332E0,5.018595028E-1,5.764084644E0
1.307122738E1,3.706079886E0,6.118462139E0,7.980724311E-1,7.197744555E0
1.308123937E1,4.431770219E0,6.658100502E0,9.885934281E-1,8.059045014E0
1.309125037E1,3.813159654E0,6.221350331E0,1.185518369E0,7.392620664E0
1.310126238E1,2.880729901E0,5.494680004E0,1.223456858E0,6.323524318E0
1.311127337E1,2.529742011E0,5.440154718E0,1.171744083E0,6.112925829E0
1.312128537E1,2.241223142E0,5.342293378E0,1.268551682E0,5.930632603E0
1.313129638E1,2.088072577E0,4.879828321E0,1.091717847E0,5.418913119E0
1.314130837E1,2.531522196E0,4.842200319E0,6.373716491E-1,5.501068185E0
1.315131937E1,3.071997003E0,5.073165337E0,3.324381834E-1,5.940091521E0
1.316133138E1,3.102470645E0,5.538872675E0,2.642274892E-1,6.354073558E0
1.317134237E1,2.933995990E0,6.153775229E0,2.753056423E-1,6.822981403E0
1.318135437E1,2.671375608E0,6.746235584E0,2.502199360E-1,7.260203317E0
1.319136538E1,1.952937576E0,7.063517200E0,3.521251738E-1,7.336977071E0
1.320137737E1,1.487563091E0,7.002224346E0,4.840430367E-1,7.174837100E0
1.321138837E1,1.017149768E0,6.742980439E0,5.347652205E-1,6.840201217E0
1.322140038E1,1.314857537E-1,6.504048005E0,1.068661691E0,6.592569056E0
1.323141137E1,-7.650732310E-1,5.807376818E0,1.352663294E0,6.011710284E0
1.324142237E1,-1.012954098E0,4.951802284E0,1.375619463E0,5.238201100E0
1.325143438E1,-8.394812429E-1,4.339855497E0,1.284372493E0,4.603117117E0
1.326144537E1,-1.969744228E-1,3.841822413E0,1.120068072E0,4.006613390E0
1.327145737E1,7.448985828E-1,3.025552277E0,8.477579767E-1,3.229169253E0
1.328146838E1,1.773820404E0,1.688268914E0,2.362649163E-1,2.460185331E0
1.329148037E1,2.842394971E0,-8.179026783E-2,-7.845162463E-1,2.949807546E0
1.330149137E1,3.032509002E0,-2.418732330E0,-2.059560091E0,4.391829311E0
1.331150338E1,2.792519099E0,-3.910279859E0,-3.373517742E0,5.871036829E0
1.332151437E1,2.568804628E0,-3.511562317E0,-5.897219871E0,7.328507988E0
1.333152662E1,1.782452209E0,-7.676990694E-1,-7.822084672E0,8.059249739E0
1.334153763E1,1.182063030E0,2.557193227E0,-8.666916118E0,9.113283996E0
1.335154962E1,2.006718073E0,5.460879005E0,-8.524603075E0,1.032070611E1
1.336156062E1,2.151692622E0,8.513235503E0,-7.339163132E0,1.144413716E1
1.337157263E1,1.447300772E0,1.060897524E1,-4.232556167E0,1.151345156E1
1.338158362E1,1.305646418E0,1.104884724E1,-1.048202576E-1,1.112621792E1
1.339159562E1,1.568008060E0,1.047427878E1,5.871272852E0,1.210954211E1
1.340160663E1,6.019066782E-1,8.863045179E0,1.017401958E1,1.350653678E1
1.341161862E1,-1.003216072E0,5.415678273E0,1.007045720E1,1.147824560E1
1.342162962E1,-3.070468249E0,1.504238911E0,8.982379834E0,9.611121550E0
1.343164163E1,-5.286293424E0,-2.089355748E0,7.636566553E0,9.519845289E0
1.344165262E1,-7.492637340E0,-5.274648110E0,4.912365153E0,1.039677154E1
1.345166462E1,-8.239254273E0,-7.214403430E0,2.215335764E0,1.117321084E1
1.346167563E1,-6.744668530E0,-8.439614965E0,1.589022807E0,1.091982820E1
1.347168762E1,-4.208991010E0,-8.552342851E0,8.463949907E-1,9.569459652E0
1.348169862E1,-1.846452762E0,-8.314970453E0,3.115592381E-1,8.523214804E0
1.349170962E1,4.811343758E-1,-8.477110820E0,-4.105745262E-1,8.500674654E0
1.350172162E1,2.260381544E0,-8.743274322E0,-1.518556988E0,9.157520730E0
1.351173262E1,3.525775729E0,-9.277936705E0,-1.695455727E0,1.006905031E1
1.352174463E1,3.799854607E0,-9.768374256E0,-2.328118321E0,1.073686014E1
1.353175562E1,2.951360174E0,-1.023899384E1,-4.073822388E0,1.140804762E1
1.354176762E1,1.826562727E0,-1.056674314E1,-2.768157552E0,1.107497577E1
1.355177862E1,4.510768003E-1,-1.067145157E1,9.604990187E-1,1.072408072E1
1.356179062E1,-5.140289473E-1,-1.046901278E1,3.244218262E0,1.097221065E1
1.357180162E1,-7.542549319E-1,-9.814698822E0,3.743631290E0,1.053147609E1
1.358181363E1,-1.644710958E0,-9.187827018E0,3.897502231E0,1.011492774E1
1.359182462E1,-3.250588803E0,-8.793895422E0,3.195547501E0,9.905071837E0
1.360183662E1,-4.384098455E0,-8.693698120E0,1.885407205E0,9.917432459E0
1.361184762E1,-4.436975995E0,-8.758273015E0,1.019169104E0,9.870805836E0
1.362185962E1,-3.380642866E0,-8.467327843E0,1.165726056E0,9.191479980E0
1.363187062E1,-2.647416349E0,-7.714297099E0,1.429641888E0,8.280281939E0
1.364188263E1,-2.378112453E0,-6.444191812E0,1.258742393E0,6.983370201E0
1.365189362E1,-1.638262210E0,-4.895496520E0,1.128529578E0,5.284256642E0
1.366190562E1,-6.012574911E-1,-3.408440237E0,9.463483183E-1,3.588112395E0
1.367191662E1,1.385757950E-1,-2.261114200E0,6.488741456E-1,2.356454611E0
1.368192862E1,4.929817484E-1,-1.368927324E0,1.572053164E-1,1.463457049E0
1.369193962E1,9.252928602E-1,-3.301150846E-1,3.949884805E-1,1.058847839E0
1.370195062E1,1.557661705E0,9.828824526E-1,5.565694146E-1,1.924093921E0
1.371196262E1,2.089082099E0,2.304805765E0,3.966797876E-1,3.135880814E0
1.372197363E1,2.714269320E0,3.449243277E0,2.305871420E-1,4.395191413E0
1.373198562E1,3.189832724E0,4.481777946E0,2.419045740E-1,5.506349443E0
1.374199662E1,3.769095914E0,5.625838898E0,2.480423963E-1,6.776257990E0
1.375200862E1,4.389605070E0,6.640800930E0,3.131119663E-1,7.966612126E0
1.376201962E1,3.898707635E0,7.454137518E0,3.139549886E-1,8.417995907E0
1.377203162E1,3.724411492E0,7.965867121E0,3.120763878E-1,8.799072202E0
1.378204263E1,3.930317683E0,8.297979029E0,3.900437826E-1,9.189993864E0
1.379205462E1,3.490687757E0,8.263206223E0,4.115451640E-1,8.979690836E0
1.380206562E1,3.047957053E0,8.230503330E0,3.867629099E-1,8.785261113E0
1.381207763E1,3.006683897E0,8.453134312E0,4.282091439E-1,8.982148453E0
1.382208862E1,2.717427986E0,8.336634972E0,5.257944953E-1,8.784096844E0
1.383210062E1,2.298821578E0,7.962155308E0,6.618662202E-1,8.313757555E0
1.384211163E1,2.204140538E0,7.444389040E0,9.287145046E-1,7.819186295E0
1.385212362E1,2.193032729E0,6.840809619E0,1.198405632E0,7.283010700E0
1.386213462E1,2.173526125E0,5.980258520E0,1.298505213E0,6.494137631E0
1.387214663E1,1.791053464E0,4.866635833E0,1.606783286E0,5.428974984E0
1.388215762E1,1.322126064E0,3.370246224E0,2.177112515E0,4.224499479E0
1.389216962E1,1.157265719E0,1.628646026E0,2.765010288E0,3.411309677E0
1.390218063E1,1.367618279E0,-1.984784728E-1,3.134390595E0,3.425518627E0
1.391219262E1,1.717792675E0,-1.793597733E0,2.866391652E0,3.792625160E0
1.392220362E1,1.595758654E0,-3.271010789E0,2.841287508E0,4.617236399E0
1.393221563E1,1.784305046E0,-3.734969224E0,4.214987622E0,5.907610368E0
1.394222662E1,1.413532517E0,-2.480383033E0,3.571447746E0,4.572265649E0
1.395223762E1,5.076333359E-2,-5.688188928E-1,3.586904275E-1,6.743816958E-1
1.396224963E1,-4.516414221E-1,9.397270775E-1,-1.420596246E0,1.762146602E0
1.397226062E1,-7.935515832E-1,2.508419847E0,-3.335886816E0,4.248533287E0
1.398227262E1,-9.143959160E-1,4.130306491E0,-5.423163294E0,6.877954036E0
1.399228363E1,-1.068097727E0,5.858104922E0,-6.816967598E0,9.051479065E0
1.400229562E1,-1.001569569E0,7.847926442E0,-7.599805108E0,1.097042063E1
1.401230662E1,-1.067820423E0,9.492194474E0,-7.440431644E0,1.210793209E1
1.402231863E1,-1.496006763E0,1.056302782E1,-6.010941784E0,1.224528538E1
1.403232962E1,-1.198581341E0,1.080901083E1,-3.382670388E0,1.138919537E1
1.404234162E1,-1.352298135E0,1.009470561E1,-4.235606074E-1,1.019368408E1
1.405235263E1,-1.180063794E0,8.290653053E0,2.697186679E0,8.797857386E0
1.406236462E1,1.676447525E-1,6.392522891E0,4.946050962E0,8.084297978E0
1.407237562E1,1.711462041E0,4.653159252E0,4.433353060E0,6.650985845E0
1.408238763E1,2.491939470E0,2.432189696E0,4.903047615E0,6.013749658E0
1.409239862E1,1.108908734E0,-1.010004762E0,5.293188461E0,5.501602701E0
1.410241062E1,-7.243766101E-1,-4.272071065E0,4.566688873E0,6.295233111E0
1.411242163E1,-1.183686948E0,-5.447036306E0,3.164877977E0,6.409974409E0
1.412243362E1,-1.295165576E0,-5.163353961E0,1.628817934E0,5.566931458E0
1.413244462E1,-1.129989408E0,-4.669669451E0,3.128260374E-5,4.804444696E0
1.414245663E1,-6.061050887E-1,-4.482884824E0,-1.689868712E0,4.829003623E0
1.415246762E1,-3.370046396E-2,-4.862238142E0,-4.119589130E0,6.372872984E0
1.416247862E1,6.389742979E-1,-5.624835516E0,-6.275582671E0,8.451627098E0
1.417249063E1,1.388524852E0,-6.226411096E0,-6.318972520E0,8.979176471E0
1.418250162E1,1.582669954E0,-7.029050202E0,-4.867897078E0,8.695332822E0
1.419251362E1,1.198832479E0,-7.801108371E0,-2.650517420E0,8.325847328E0
1.420252462E1,4.536999343E-1,-8.419514576E0,-1.127606302E-2,8.431737453E0
1.421253662E1,-3.622528802E-1,-8.888923786E0,2.229700034E0,9.171464194E0
1.422254762E1,-7.699806529E-1,-9.255036669E0,3.738370550E0,1.001119315E1
1.423255963E1,-9.328836425E-1,-9.361001666E0,4.314797840E0,1.034969103E1
1.424257062E1,-1.374652918E0,-9.308119447E0,4.249137116E0,1.032404594E1
1.425258262E1,-1.908817556E0,-9.253273149E0,3.858382312E0,1.020557507E1
1.426259362E1,-2.517420174E0,-9.287940706E0,3.218438473E0,1.014699922E1
1.427260562E1,-2.806789521E0,-9.341550903E0,2.843304213E0,1.016006986E1
1.428261662E1,-2.511345794E0,-9.368096092E0,2.885925445E0,1.011912288E1
1.429262863E1,-2.092341337E0,-9.254271269E0,2.772223413E0,9.884566335E0
1.430263962E1,-1.631548584E0,-8.961200050E0,2.382969589E0,9.415073084E0
1.431265162E1,-1.211372271E0,-8.524914147E0,1.824070205E0,8.801637126E0
1.432266262E1,-8.942471418E-1,-8.057525150E0,1.296499326E0,8.210012180E0
1.433267475E1,-5.150696055E-1,-7.593618169E0,8.750852314E-1,7.661207983E0
1.434268575E1,-2.538783013E-1,-7.069054513E0,5.266680694E-1,7.093191465E0
1.435269675E1,-1.331153452E-1,-6.340730009E0,2.023504990E-1,6.345354400E0
1.436270875E1,-1.167489430E-1,-5.376210737E0,-9.023569375E-2,5.378235276E0
1.437271975E1,-1.071327948E-1,-4.238634932E0,-3.186025017E-1,4.251942036E0
1.438273175E1,1.026049303E-2,-3.047565290E0,-5.247782493E-1,3.092434588E0
1.439274275E1,2.224708412E-1,-1.754593881E0,-6.900357664E-1,1.898484217E0
1.440275475E1,3.462605627E-1,-4.284740227E-1,-6.694999065E-1,8.670158535E-1
1.441276575E1,2.333269279E-1,6.621901560E-1,-6.671906948E-1,9.685456526E-1
1.442277775E1,5.323044929E-1,1.729904013E0,-6.365571320E-1,1.918624755E0
1.443278875E1,8.168273022E-1,2.824366543E0,-4.594420463E-1,2.975792366E0
1.444280075E1,9.456735496E-1,3.828246347E0,-3.894087750E-1,3.962500190E0
1.445281175E1,1.286064531E0,4.757097604E0,-2.702577227E-1,4.935279002E0
1.446282375E1,1.599207926E0,5.596723858E0,-7.209923878E-2,5.821166741E0
1.447283475E1,1.812960496E0,6.425533347E0,1.240235370E-1,6.677550928E0
1.448284675E1,1.972662427E0,7.213207675E0,3.482349481E-1,7.486189257E0
1.449285775E1,2.030340385E0,7.867897022E0,4.556893033E-1,8.138411293E0
1.450286975E1,1.850948686E0,8.274386684E0,3.328304585E-1,8.485414671E0
1.451288075E1,1.650347236E0,8.532232522E0,2.119983318E-1,8.692961584E0
1.452289275E1,1.404394196E0,8.631097829E0,9.672456823E-2,8.745143134E0
1.453290375E1,1.614674835E0,8.600456665E0,-4.268935204E-2,8.750820078E0
1.454291475E1,1.905879769E0,8.126363835E0,-2.313755659E-1,8.350071947E0
1.455292675E1,2.191207521E0,7.275965840E0,-2.843489277E-1,7.604072831E0
1.456293775E1,2.522543212E0,6.556775857E0,-8.989509344E-3,7.025283959E0
1.457294975E1,2.937966834E0,5.853254072E0,6.402484792E-1,6.580436951E0
1.458296075E1,2.783257694E0,4.957437830E0,1.321234510E0,5.836811960E0
1.459297275E1,2.522134199E0,4.008622425E0,1.915167779E0,5.108628220E0
1.460298375E1,2.511107812E0,2.873498358E0,2.265886112E0,4.438118422E0
1.461299575E1,2.555893975E0,1.671065821E0,2.596376588E0,4.008269749E0
1.462300675E1,2.232264330E0,5.684452558E-1,2.950790362E0,3.743433960E0
1.463301875E1,1.601350638E0,-4.350041932E-1,3.266696713E0,3.663995078E0
1.464302975E1,9.371488939E-1,-9.563156283E-1,3.517249904E0,3.763487015E0
1.465304175E1,3.163717890E-1,-4.477920538E-1,3.343995734E0,3.388645202E0
1.466305275E1,-2.806531951E-1,8.674730337E-1,2.764146069E0,2.910632092E0
1.467306475E1,-6.890665904E-1,2.248429835E0,2.003011669E0,3.089062193E0
1.468307575E1,-5.077488184E-1,3.322701344E0,1.380172105E0,3.633597133E0
1.469308775E1,1.223570806E-1,4.346423675E0,6.415108931E-1,4.395214016E0
1.470309875E1,8.693220694E-1,5.506648670E0,-2.970198441E-1,5.582752119E0
1.471311075E1,1.710507630E0,6.699444995E0,-1.411762857E0,7.057015938E0
1.472312175E1,2.251490268E0,7.772698504E0,-2.348974462E0,8.426252517E0
1.473313375E1,2.350418578E0,8.011453183E0,-2.097388653E0,8.608535808E0
1.474314475E1,2.527580296E0,6.890935460E0,-1.412695488E0,7.474581073E0
1.475315575E1,2.307315828E0,5.746182783E0,-4.783665597E-1,6.210568208E0
1.476316775E1,1.330054450E0,4.738192971E0,4.375716325E-1,4.940747555E0
1.477317875E1,5.688729065E-1,3.918364804E0,1.380081473E0,4.193068566E0
1.478319075E1,2.731709518E-1,3.610916451E0,1.690382098E0,3.996339778E0
1.479320175E1,1.697582652E-1,3.305285997E0,1.548620301E0,3.654033146E0
1.480321375E1,6.519193755E-1,3.001975719E0,9.568525489E-1,3.217518281E0
1.481322475E1,1.238520674E0,2.225233930E0,4.995024902E-1,2.595207553E0
1.482323675E1,1.463784657E0,9.805850816E-1,-3.178230679E-1,1.790313975E0
1.483324775E1,9.162443671E-1,-6.405800164E-1,-6.385732520E-1,1.287486814E0
1.484325975E1,1.559064123E-1,-2.484707049E0,-9.591591293E-1,2.667969670E0
1.485327075E1,-1.566707713E-1,-4.271930147E0,-1.424135858E0,4.505784710E0
1.486328275E1,-2.590632101E-1,-5.895832327E0,-1.452315344E0,6.077595942E0
1.487329375E1,-6.832249296E-1,-7.483952470E0,-7.756138605E-1,7.554992902E0
1.488330575E1,-1.062135614E0,-8.853664491E0,1.362471414E-1,8.918187611E0
1.489331675E1,-1.311689807E0,-9.738908967E0,1.170899672E0,9.896357111E0
1.490332875E1,-1.209919165E0,-9.778616824E0,1.914934475E0,1.003754081E1
1.491333975E1,-1.031994971E0,-9.300418079E0,2.371069921E0,9.653225505E0
1.492335075E1,-1.414780459E0,-8.953554230E0,2.385270469E0,9.373219954E0
1.493336275E1,-2.026157141E0,-8.725407570E0,1.721123250E0,9.121420682E0
1.494337375E1,-2.725277580E0,-8.567712842E0,7.763406694E-1,9.024164563E0
1.495338575E1,-3.112571710E0,-8.604007094E0,6.635215670E-2,9.149942258E0
1.496339675E1,-2.909269284E0,-8.910541527E0,-3.044703662E-1,9.378395400E0
1.497340875E1,-2.519604401E0,-9.515900840E0,-2.418425936E-1,9.846789476E0
1.498341975E1,-2.080046689E0,-9.969436029E0,2.114704013E-1,1.018631281E1
1.499343175E1,-1.334787186E0,-1.001699143E1,9.775027218E-1,1.015269845E1
1.500344275E1,-4.589158700E-1,-9.743427111E0,1.781264201E0,9.915537192E0
1.501345475E1,2.750221985E-1,-9.119710464E0,2.438716066E0,9.444156512E0
1.502346575E1,5.607013130E-1,-8.127571285E0,2.680618594E0,8.576567903E0
1.503347775E1,5.166049381E-1,-7.049839393E0,2.541422701E0,7.511720540E0
1.504348875E1,4.142124080E-1,-6.087664855E0,2.182163925E0,6.480206377E0
1.505350075E1,1.948127254E-1,-5.295818539E0,1.678764558E0,5.558947421E0
1.506351175E1,3.650482513E-2,-4.555158164E0,1.209825464E0,4.713223542E0
1.507352375E1,2.896765452E-2,-3.753025426E0,7.853237468E-1,3.834419430E0
1.508353475E1,5.501002014E-2,-2.816990281E0,5.095747577E-1,2.863237115E0
1.509354575E1,9.746208485E-2,-1.833303251E0,3.870557092E-1,1.876249395E0
1.510355775E1,2.229428211E-1,-8.103024673E-1,1.926626860E-1,8.622137210E-1
1.511356875E1,5.054821087E-1,2.458473516E-1,-4.619095713E-2,5.639917437E-1
1.512358075E1,7.176081656E-1,1.339243934E0,-1.753889877E-1,1.529476084E0
1.513359175E1,6.757369852E-1,2.428185523E0,-3.475491428E-1,2.544306549E0
1.514360375E1,6.640082015E-1,3.542509875E0,-4.247972935E-1,3.629150844E0
1.515361475E1,7.970943381E-1,4.625409536E0,-3.981848609E-1,4.710448381E0
1.516362675E1,8.700298018E-1,5.568542032E0,-3.447161669E-1,5.646630983E0
1.517363775E1,1.083263650E0,6.417277079E0,-2.660857344E-1,6.513501889E0
1.518364975E1,1.367036481E0,7.139582459E0,-1.546120763E-1,7.270923691E0
1.519366075E1,1.625837316E0,7.688246584E0,-4.231863856E-2,7.858388727E0
1.520367275E1,1.832385238E0,8.063955333E0,8.538111605E-2,8.269963797E0
1.521368375E1,2.089802622E0,8.302751527E0,1.378844348E-1,8.562824886E0
1.522369575E1,2.373431026E0,8.403097349E0,1.250204508E-1,8.732745846E0
1.523370675E1,2.220253272E0,8.028736968E0,9.550019782E-2,8.330621956E0
1.524371875E1,2.097019401E0,7.445669580E0,9.704912525E-2,7.735948836E0
1.525372975E1,2.497389952E0,6.705795656E0,1.961167642E-1,7.158429558E0
1.526374175E1,2.656935324E0,5.886358083E0,5.865985215E-1,6.484798735E0
1.527375275E1,2.398906468E0,4.974055032E0,1.085763627E0,5.628042143E0
1.528376375E1,2.767583647E0,3.991926870E0,1.473855609E0,5.076145165E0
1.529377575E1,2.987852939E0,2.822478477E0,1.572388794E0,4.400688180E0
1.530378675E1,2.980327865E0,1.635260981E0,1.608365543E0,3.760754230E0
1.531379875E1,2.932276908E0,6.363214892E-1,1.678138028E0,3.437920905E0
1.532380975E1,2.522342944E0,-1.552359742E-1,1.787679766E0,3.095498520E0
1.533382112E1,2.025448020E0,-7.923433292E-1,1.840130460E0,2.848916942E0
1.534383213E1,1.684395572E0,-1.123420866E0,1.930583378E0,2.797573067E0
1.535384412E1,1.254331692E0,-1.098613468E0,1.978876702E0,2.587711836E0
1.536385512E1,5.803754760E-1,-6.899322706E-1,1.919277202E0,2.120487493E0
1.537386712E1,-2.557453720E-1,-1.422802985E-2,1.717041893E0,1.736041761E0
1.538387812E1,-9.650607240E-1,7.360632938E-1,1.283792449E0,1.766707227E0
1.539389012E1,-1.397593153E0,1.538587795E0,7.108869374E-1,2.196788397E0
1.540390113E1,-1.641711921E0,2.647673627E0,-7.158325124E-1,3.196530909E0
1.541391312E1,-1.778262826E0,4.270845489E0,-3.591777930E0,5.856894106E0
1.542392412E1,-2.309217781E0,5.194201532E0,-3.100291972E0,6.474876572E0
1.543393612E1,-2.455536459E0,6.151819335E0,-2.572964337E0,7.105961294E0
1.544394712E1,-1.473048986E0,7.073536988E0,-1.863519908E0,7.461736077E0
1.545395912E1,-4.068109658E-1,7.900433269E0,-1.369769323E0,8.028611898E0
1.546397013E1,9.878018613E-1,8.746748738E0,-1.680995563E0,8.961423552E0
1.547398112E1,2.312405537E0,9.170134513E0,-1.777796803E0,9.622845101E0
1.548399312E1,3.084653302E0,8.729249775E0,-1.464653846E0,9.373371780E0
1.549400413E1,2.876210881E0,7.290885011E0,-7.881998460E-1,7.877236335E0
1.550401612E1,2.583425006E0,5.296826014E0,4.873347268E-2,5.893456162E0
1.551402712E1,2.022294763E0,3.411257426E0,8.771010590E-1,4.061484901E0
1.552403913E1,1.081655374E0,1.668607067E0,1.978630534E0,2.805210630E0
1.553405012E1,1.331127122E0,2.314000511E-1,2.801710337E0,3.110470416E0
1.554406212E1,3.963293932E-1,-8.844042313E-1,3.671461446E0,3.797219638E0
1.555407313E1,-1.125336560E0,-2.096984611E0,4.654646199E0,5.227758417E0
1.556408512E1,-1.672656264E0,-2.463881021E0,3.961925392E0,4.956343558E0
1.557409612E1,-1.397226971E0,-2.521464400E0,3.028260123E0,4.180955070E0
1.558410813E1,-5.846431395E-1,-2.867592085E0,2.926340230E0,4.138642182E0
1.559411912E1,2.739125980E-1,-3.518546231E0,2.912638450E0,4.575877887E0
1.560413112E1,1.089283213E0,-4.721724288E0,2.562257500E0,5.481457987E0
1.561414213E1,1.066531112E0,-6.266592577E0,2.178884514E0,6.719762560E0
1.562415312E1,-2.217954512E-1,-8.065920582E0,1.844896526E0,8.277192232E0
1.563416512E1,-1.694167878E0,-9.609972600E0,1.536220842E0,9.878347668E0
1.564417613E1,-2.570129899E0,-1.080443012E1,1.085990499E0,1.115888226E1
1.565418812E1,-2.668744653E0,-1.166229267E1,5.398506171E-1,1.197592197E1
1.566419912E1,-2.468753798E0,-1.215564564E1,-4.201955348E-2,1.240387971E1
1.567421113E1,-2.035200445E0,-1.237264283E1,-7.077499062E-1,1.255887103E1
1.568422212E1,-1.579591395E0,-1.228648060E1,-1.234000777E0,1.244891451E1
1.569423412E1,-1.321692347E0,-1.177977493E1,-1.480161539E0,1.194574594E1
1.570424513E1,-1.472117671E0,-1.090556239E1,-1.312608113E0,1.108247994E1
1.571425712E1,-1.596482100E0,-9.849485078E0,-8.667064637E-1,1.001560240E1
1.572426812E1,-1.545970636E0,-8.843694988E0,-3.213243806E-1,8.983552505E0
1.573428013E1,-1.632830878E0,-7.968976085E0,2.871596843E-1,8.139605470E0
1.574429112E1,-1.817282611E0,-7.234758173E0,7.242785230E-1,7.494586132E0
1.575430312E1,-1.915289547E0,-6.589806193E0,8.717587504E-1,6.917647218E0
1.576431413E1,-1.904806805E0,-5.963907366E0,8.197071290E-1,6.314142840E0
1.577432612E1,-1.660088843E0,-5.275616993E0,9.006223610E-1,5.603494469E0
1.578433712E1,-1.274321714E0,-4.471576309E0,1.059914695E0,4.768889774E0
1.579434812E1,-9.008334455E-1,-3.643891824E0,1.139428788E0,3.922721821E0
1.580436012E1,-4.606138283E-1,-2.739957892E0,1.068621930E0,2.976825017E0
1.581437112E1,-5.494328879E-2,-1.744874640E0,9.053320009E-1,1.966527982E0
1.582438313E1,3.659987893E-1,-5.578267121E-1,8.407483345E-1,1.073304950E0
1.583439412E1,7.588002650E-1,8.506605345E-1,7.259062417E-1,1.351421866E0
1.584440612E1,1.127231788E0,2.320071675E0,6.623052000E-1,2.663086980E0
1.585441712E1,1.458105695E0,3.781121297E0,6.131511663E-1,4.098646708E0
1.586442912E1,1.745476026E0,5.163045228E0,5.766961156E-1,5.480538385E0
1.587444012E1,2.060855981E0,6.442123652E0,5.740954202E-1,6.788053482E0
1.588445212E1,2.434156846E0,7.455884666E0,6.233050755E-1,7.867899651E0
1.589446312E1,2.819033298E0,8.330664380E0,7.024154183E-1,8.822715295E0
1.590447512E1,3.091418822E0,8.967995099E0,6.985843226E-1,9.511562778E0
1.591448612E1,3.093344895E0,9.338143730E0,6.296843147E-1,9.857292392E0
1.592449812E1,2.657110448E0,9.374186552E0,4.264959097E-1,9.752820526E0
1.593450913E1,1.969110536E0,8.961526909E0,1.038266877E-1,9.175900001E0
1.594452112E1,2.295981878E0,8.790623905E0,-3.904829085E-2,9.085599936E0
1.595453212E1,2.691047688E0,8.420553042E0,1.635466675E-2,8.840119833E0
1.596454313E1,2.559978840E0,7.689943446E0,2.421332184E-1,8.108473985E0
1.597455512E1,2.795084272E0,6.730825832E0,7.328175044E-1,7.324857266E0
1.598456612E1,3.218276797E0,5.429150258E0,9.567249334E-1,6.383439564E0
1.599457813E1,3.510733474E0,3.727722185E0,1.262913212E0,5.274098216E0
1.600458912E1,3.525973657E0,1.937433976E0,2.046427391E0,4.513757383E0
1.601460112E1,3.500549671E0,3.644429183E-1,2.426319677E0,4.274774124E0
1.602461213E1,3.530171958E0,-8.159140402E-1,2.731771206E0,4.537665005E0
1.603462412E1,3.339327025E0,-1.890951535E0,2.950453563E0,4.840658934E0
1.604463512E1,2.926546637E0,-2.675056137E0,3.002202591E0,4.973310864E0
1.605464713E1,2.734986882E0,-2.970209550E0,2.939898169E0,4.994526931E0
1.606465812E1,2.091142804E0,-2.587106997E0,2.648704491E0,4.252250736E0
1.607467012E1,1.011762143E0,-1.606000929E0,2.178607063E0,2.889503479E0
1.608468113E1,1.845527440E-3,-4.318595606E-1,1.740509108E0,1.793286938E0
1.609469312E1,-8.243118113E-1,6.061159426E-1,1.198559926E0,1.575884638E0
1.610470412E1,-1.635473819E0,1.882284207E0,-3.623215485E-1,2.519731207E0
1.611471613E1,-2.308419929E0,3.138283086E0,-2.643139696E0,4.707845659E0
1.612472712E1,-2.577485989E0,4.144152113E0,-3.170869619E0,5.819952311E0
1.613473812E1,-2.248680096E0,5.357849311E0,-2.983500856E0,6.531798280E0
1.614475013E1,-1.678249125E0,6.431916168E0,-3.073345664E0,7.323354374E0
1.615476112E1,-1.248089350E0,7.736192583E0,-3.725140640E0,8.676582017E0
1.616477312E1,-5.788877251E-1,9.205214884E0,-3.475683217E0,9.856544317E0
1.617478413E1,5.105435682E-1,1.023747590E1,-2.896102524E0,1.065147771E1
1.618479612E1,1.230669326E0,1.067169832E1,-2.366537744E0,1.100000877E1
1.619480712E1,1.507296713E0,1.062745712E1,-1.465364283E0,1.083337808E1
1.620481913E1,1.603677684E0,1.019659919E1,-9.782019027E-1,1.036818673E1
1.621483012E1,1.093913184E0,9.193909877E0,-3.208969492E-1,9.264318633E0
1.622484212E1,1.385970935E0,7.780137332E0,1.005577689E0,7.966344132E0
1.623485313E1,2.237219407E0,5.695102676E0,3.120239164E0,6.868423225E0
1.624486512E1,2.631628867E0,2.782160171E0,4.958665161E0,6.265320892E0
1.625487612E1,1.710284558E0,-1.020732064E0,5.598149993E0,5.941906307E0
1.626488813E1,-6.941408041E-1,-5.150781278E0,5.998893596E0,7.937197465E0
1.627489912E1,-3.290893076E0,-9.078546066E0,5.342374654E0,1.103589339E1
1.628491012E1,-5.955941119E0,-1.278253265E1,4.239214976E0,1.472539708E1
1.629492213E1,-6.394120935E0,-1.435873617E1,3.028004014E0,1.600708890E1
1.630493312E1,-4.733716342E0,-1.379775430E1,2.262766623E0,1.476164648E1
1.631494512E1,-2.334868493E0,-1.215765475E1,9.858314958E-1,1.241901943E1
1.632495612E1,-9.368124598E-1,-1.086484121E1,-2.314626163E-1,1.090761051E1
1.633496887E1,-3.527515202E-1,-1.063727576E1,-8.454386786E-1,1.067664909E1
1.634497987E1,-3.242281810E-1,-1.121642026E1,-2.093510195E0,1.141472699E1
1.635499188E1,-9.758255211E-1,-1.163755895E1,-3.162738481E0,1.209908792E1
1.636500287E1,-1.834786398E0,-1.182383603E1,-3.798332577E0,1.255375920E1
1.637501487E1,-2.282034660E0,-1.174092836E1,-3.641707012E0,1.250276413E1
1.638502588E1,-2.049441046E0,-1.137706081E1,-2.942389668E0,1.192876265E1
1.639503787E1,-1.914568147E0,-1.106203271E1,-2.121082156E0,1.142510956E1
1.640504887E1,-2.048341916E0,-1.068764134E1,-1.119098311E0,1.093955041E1
1.641506088E1,-2.109744112E0,-1.008217619E1,-2.408713710E-1,1.030336431E1
1.642507187E1,-2.097653093E0,-9.242096781E0,4.738984099E-1,9.488997898E0
1.643508287E1,-1.879349490E0,-8.302244573E0,1.189889967E0,8.595060069E0
1.644509488E1,-1.276590288E0,-7.319170917E0,1.824978570E0,7.650522365E0
1.645510587E1,-9.287980467E-1,-6.349895520E0,2.375657646E0,6.843068623E0
1.646511787E1,-6.924470119E-1,-5.274881998E0,2.793659306E0,6.009026150E0
1.647512887E1,-3.711391497E-1,-4.207831800E0,2.884102868E0,5.114845264E0
1.648514087E1,-2.695287942E-1,-3.182610828E0,2.587340301E0,4.110472879E0
1.649515187E1,-2.298266385E-1,-2.005728285E0,2.176545189E0,2.968689138E0
1.650516388E1,-3.743241280E-2,-7.896705669E-1,1.574745953E0,1.762045858E0
1.651517487E1,4.781730900E-1,5.285315770E-1,1.197828293E0,1.393839213E0
1.652518687E1,8.833084631E-1,1.783658051E0,9.101166312E-1,2.188602789E0
1.653519787E1,1.155964860E0,2.970843973E0,5.946448749E-1,3.242802985E0
1.654520987E1,1.479262530E0,4.310476747E0,7.308317900E-1,4.615467747E0
1.655522087E1,1.803895996E0,5.672204980E0,8.547822368E-1,6.013202372E0
1.656523288E1,2.080795425E0,6.978202815E0,9.483815414E-1,7.343327017E0
1.657524387E1,2.310776210E0,8.004456405E0,1.052333926E0,8.397524381E0
1.658525587E1,2.472038179E0,8.774454015E0,1.063407968E0,9.177845745E0
1.659526687E1,2.612791769E0,9.314635000E0,1.002096988E0,9.725908923E0
1.660527787E1,2.756898445E0,9.613721834E0,9.527131587E-1,1.004648192E1
1.661528987E1,2.647487100E0,9.746963507E0,9.692578554E-1,1.014652386E1
1.662530087E1,2.314149177E0,9.714944154E0,1.010554401E0,1.003776103E1
1.663531287E1,2.180748752E0,9.237923039E0,8.225032675E-1,9.527402522E0
1.664532388E1,2.688955554E0,8.886126478E0,8.329089725E-1,9.321344491E0
1.665533587E1,2.982911457E0,8.416296853E0,8.311910605E-1,8.967869985E0
