"Time (s)","Linear Acceleration x (m/s^2)","Linear Acceleration y (m/s^2)","Linear Acceleration z (m/s^2)","Absolute acceleration (m/s^2)"
1.185375004E-3,-7.708863866E-1,9.694391191E-2,-8.770753312E-1,1.171718857E0
1.114637501E-2,-6.624199516E-1,2.863080373E-1,-5.135591966E-1,8.857288145E-1
2.110737501E-2,-2.683850057E-1,2.947718820E-1,-6.864104927E-2,4.045152251E-1
3.106837501E-2,1.255638398E-1,1.058892748E-1,2.865995210E-1,3.303302920E-1
4.103037500E-2,2.709624584E-1,-1.194925296E-1,4.602951550E-1,5.473305658E-1
5.099137500E-2,2.903079714E-1,-2.791519225E-1,5.389021987E-1,6.727704615E-1
6.095237500E-2,2.931558578E-1,-3.101485974E-1,3.621905708E-1,5.597450482E-1
7.091437501E-2,3.089236057E-1,-2.949443749E-1,-3.319171965E-2,4.284012940E-1
8.087537499E-2,1.944721068E-1,-2.202885872E-1,-3.241035622E-1,4.374809494E-1
9.083637499E-2,-3.542827964E-3,-8.426013172E-2,-3.610345763E-1,3.707536739E-1
1.007983750E-1,-1.052197686E-1,3.258010089E-2,-3.756350738E-1,3.914516207E-1
1.107593750E-1,-4.860527247E-2,1.018020710E-1,-4.086408520E-1,4.239262673E-1
1.207203750E-1,6.971781403E-3,1.365722466E-1,-5.055906111E-1,5.237580074E-1
1.306823750E-1,6.374122873E-2,1.997604749E-1,-5.912453038E-1,6.273262315E-1
1.406433750E-1,8.460073203E-2,2.927309114E-1,-6.454951859E-1,7.138015868E-1
1.506043750E-1,1.140705527E-1,4.334137505E-1,-6.718906868E-1,8.076488501E-1
1.605653750E-1,1.997036107E-1,6.133828622E-1,-6.759094781E-1,9.343306108E-1
1.705273750E-1,2.557208137E-1,7.018336934E-1,-6.935639763E-1,1.019310874E0
1.804883750E-1,3.611595605E-1,6.695281193E-1,-7.373496813E-1,1.059428470E0
1.904493750E-1,4.417713220E-1,5.447605240E-1,-6.996357250E-1,9.906644625E-1
2.004113750E-1,4.597386463E-1,5.069117895E-1,-5.190298516E-1,8.589011422E-1
2.103723750E-1,4.546499607E-1,4.540520829E-1,-2.767802918E-1,6.996264794E-1
2.203333750E-1,5.656511638E-1,3.461610138E-1,-2.042409039E-1,6.939041961E-1
2.302953750E-1,6.949113210E-1,1.876880211E-1,-1.197626710E-2,7.199110835E-1
2.402563750E-1,8.691345200E-1,1.244650018E-1,5.250939989E-1,1.023039617E0
2.502173750E-1,1.069287928E0,1.291389737E-1,7.254891890E-1,1.298610069E0
2.601783750E-1,9.741877891E-1,2.905858603E-1,1.080125157E0,1.483291052E0
2.701403750E-1,4.821514624E-1,7.057437265E-1,2.236086363E0,2.393872691E0
2.801013750E-1,3.850062601E-1,4.104034951E-1,1.761919273E0,1.849600058E0
2.900623750E-1,4.843392713E-1,1.677478462E-2,1.495944636E0,1.572487290E0
3.000243750E-1,2.605251054E-1,-4.061823902E-1,1.895889509E0,1.956337009E0
3.099853750E-1,2.944803983E-3,-9.502747236E-1,2.183150935E0,2.381003722E0
3.199463750E-1,-1.583911318E-1,-1.471640830E0,3.124692403E0,3.457530491E0
3.299083750E-1,-4.582551346E-1,-1.466286973E0,5.098369761E0,5.324788209E0
3.398693750E-1,-8.205760252E-1,-1.156539641E0,5.646531025E0,5.821876121E0
3.498303750E-1,-6.174117400E-1,-9.750217482E-2,6.030560946E0,6.062868072E0
3.597923750E-1,1.238406471E-1,6.372663993E-1,4.846825467E0,4.890108595E0
3.697533750E-1,1.246461778E0,1.551910237E0,3.244657972E0,3.806559826E0
3.797143750E-1,2.140909918E0,1.875608441E0,3.939150487E0,4.859867165E0
3.896753750E-1,2.709170255E0,1.008897811E0,5.782127956E0,6.464555821E0
3.996373750E-1,3.215105852E0,-4.075026914E-2,6.195898570E0,6.980524717E0
4.095986250E-1,3.437057095E0,-5.389361856E-1,5.149846893E0,6.214880265E0
4.195596250E-1,3.121466494E0,-1.109436080E0,5.565497972E0,6.476817827E0
4.295216250E-1,-1.291913939E0,-3.969612141E0,1.171950066E1,1.244080214E1
4.394826250E-1,-2.781376352E0,-1.444816436E0,4.513841153E0,5.495298982E0
4.494436250E-1,6.262981921E-1,2.543843156E0,-2.232936468E0,3.442294685E0
4.594056250E-1,-1.459046074E0,2.732310319E0,-1.807103632E0,3.586078452E0
4.693666250E-1,-4.394941531E0,2.186594360E0,9.985313559E-1,5.009368306E0
4.793276250E-1,-5.236703188E0,1.414896672E0,3.876042657E0,6.666985793E0
4.892896250E-1,-4.059820353E0,7.503220215E-1,2.461416419E0,4.806630340E0
4.992506250E-1,-2.254305409E0,3.332516773E-1,-1.461833149E-1,2.283488367E0
5.092116250E-1,-6.747119683E-1,-4.627521185E-1,-7.897986209E-1,1.137170886E0
5.191726250E-1,-4.382131451E-1,-9.242589994E-1,-2.641395471E0,2.832535171E0
5.291346250E-1,-7.887823749E-1,-1.017825121E0,-4.980037318E0,5.143823219E0
5.390956250E-1,-1.022626270E0,-7.097511157E-1,-7.146082808E0,7.253689450E0
5.490566250E-1,-4.536842930E-1,-9.120302787E-1,-8.393651172E0,8.455235577E0
5.590186250E-1,-4.261950704E-1,-1.062412918E0,-9.472935500E0,9.541848376E0
5.689796250E-1,-7.396461752E-1,-3.847826041E-1,-1.005766467E1,1.009216293E1
5.789406250E-1,-1.062625026E0,4.076455097E-1,-9.667326769E0,9.734092339E0
5.889026250E-1,-1.123457411E0,7.925677161E-1,-8.513827241E0,8.624127459E0
5.988636250E-1,-1.160408744E0,5.344841887E-1,-8.467862864E0,8.563697991E0
6.088246250E-1,5.914503948E-1,-1.073583146E0,-6.271729941E0,6.390382680E0
6.187856250E-1,9.580819260E-1,-2.232304091E0,-7.030766945E0,7.438601103E0
6.287476250E-1,4.677687737E-1,-2.287323759E0,-8.704797304E0,9.012444381E0
6.387086250E-1,-1.303478855E-1,-2.067768120E0,-9.749211177E0,9.966934039E0
6.486696250E-1,-5.797765019E-1,-1.968431820E0,-1.017073578E1,1.037567979E1
6.586316250E-1,-8.656666095E-1,-1.774627027E0,-1.019329200E1,1.038276849E1
6.685926250E-1,-2.146962809E0,-1.216316458E0,-5.787806772E0,6.291866357E0
6.785536250E-1,-1.267995173E0,-2.590088493E0,-3.722021735E0,4.708483403E0
6.885156250E-1,-5.988258168E-1,-4.194750994E0,-4.908683161E0,6.484573898E0
6.984766250E-1,1.494683538E-1,-5.162836483E0,-5.609630417E0,7.625298338E0
7.084376250E-1,9.183060953E-1,-5.860277163E0,-5.290754850E0,7.948472897E0
7.183996250E-1,1.441630434E0,-6.179320545E0,-3.862536174E0,7.428424220E0
7.283606250E-1,1.857373022E0,-6.087918624E0,-2.250985068E0,6.751260733E0
7.383216250E-1,1.249071244E0,-5.467717323E0,-5.902109313E-1,5.639544365E0
7.482836250E-1,5.471696500E-3,-4.260015568E0,1.333844615E0,4.463956097E0
7.582446250E-1,-6.980370963E-1,-2.471097362E0,5.223737572E0,5.820739831E0
7.682056250E-1,2.023704892E-2,-1.297433126E0,6.029030730E0,6.167086330E0
7.781666250E-1,1.073539877E0,-7.409775862E-1,6.153546603E0,6.290283892E0
7.881286250E-1,1.366145512E0,-3.651796675E-1,6.807355945E0,6.952683274E0
7.980896250E-1,1.360145245E0,1.172360599E0,6.318157418E0,6.568374047E0
8.080506250E-1,7.389554729E-1,3.658292931E0,7.918026956E0,8.753531473E0
8.180126250E-1,5.016151257E-1,5.916908616E0,9.507571481E0,1.120960931E1
8.279736250E-1,3.781339545E-1,6.073864256E0,9.452087837E0,1.124174260E1
8.379346250E-1,2.203451883E0,5.431981480E0,1.277181119E1,1.405278564E1
8.478966250E-1,2.073862381E0,5.713073509E0,1.269253114E1,1.407268492E1
8.578576250E-1,3.910017027E0,2.077640121E0,1.542017772E1,1.604327593E1
8.678186250E-1,3.818317190E0,2.379469884E0,1.535722893E1,1.600268426E1
8.777796250E-1,2.658893264E0,2.993964449E-1,1.224751242E1,1.253638353E1
8.877416250E-1,1.218791803E0,1.014498932E0,9.594604363E0,9.724767063E0
8.977026250E-1,4.042792311E-1,1.911360657E0,6.812899105E0,7.087477370E0
9.076636250E-1,2.431734198E-1,2.274775634E0,3.944987177E0,4.560335660E0
9.176256250E-1,-8.214534000E-3,2.563339528E0,1.276126165E0,2.863437619E0
9.275866250E-1,-2.059341844E-1,2.800940259E0,-9.234981304E-1,2.956437724E0
9.375476250E-1,-5.842923065E-1,2.948913698E0,-2.847136770E0,4.140492397E0
9.475096250E-1,-1.005278019E0,2.850057455E0,-4.628314433E0,5.527631128E0
9.574706250E-1,-1.307176196E0,2.467679957E0,-6.012930422E0,6.629742546E0
9.674316250E-1,-1.323473701E0,2.023710228E0,-7.036353959E0,7.440246150E0
9.773936250E-1,-1.236131941E0,1.432604234E0,-7.676830480E0,7.906586070E0
9.873546250E-1,-1.159705762E0,8.216849497E-1,-7.901137859E0,8.027955099E0
9.973156250E-1,-1.051000030E0,3.507268122E-1,-7.915819048E0,7.992984521E0
1.007276625E0,-1.049006276E0,-1.145114328E-1,-7.928723853E0,7.998636694E0
1.017238625E0,-1.139719541E0,-5.011692390E-1,-7.777591454E0,7.876614759E0
1.027199625E0,-1.205985597E0,-4.360834430E-1,-7.774670185E0,7.879725028E0
1.037160625E0,-1.409910020E0,-9.082117546E-1,-6.915825303E0,7.116272513E0
1.047122625E0,-1.484044383E0,-1.085014160E0,-6.547292258E0,6.800491112E0
1.057083625E0,-1.561317969E0,-1.137803554E0,-6.351790017E0,6.639092344E0
1.067044625E0,-1.641898301E0,-1.017867513E0,-6.286641510E0,6.576757999E0
1.077006625E0,-1.608439949E0,-8.798531972E-1,-6.279332491E0,6.541501146E0
1.086967625E0,-1.257786227E0,-7.477843300E-1,-6.329356590E0,6.496303752E0
1.096928625E0,-1.263971996E0,-7.958256385E-1,-6.320987470E0,6.495063222E0
1.106890625E0,-1.292793068E-1,-5.314357428E-1,-6.847489479E0,6.869297580E0
1.116851625E0,3.252841151E-1,-3.677439639E-1,-7.002937707E0,7.020126915E0
1.126812625E0,6.318186946E-1,-2.484648576E-1,-6.975467488E0,7.008428948E0
1.136773625E0,8.597145094E-1,-3.457992174E-1,-6.863216150E0,6.925490745E0
1.146735625E0,9.415457077E-1,-6.068857285E-1,-6.811434962E0,6.902931613E0
1.156696625E0,6.377262828E-1,-7.577114403E-1,-6.577048153E0,6.651194167E0
1.166657625E0,1.121643604E-1,-7.388087077E-1,-6.079799180E0,6.125551177E0
1.176619625E0,-8.246167436E-2,-7.025812599E-1,-5.390592549E0,5.436810497E0
1.186580625E0,9.769498676E-2,-6.812626040E-1,-4.633461152E0,4.684295603E0
1.196541625E0,2.593595360E-1,-5.638024203E-1,-3.748786780E0,3.799808266E0
1.206503625E0,3.302897702E-1,-1.452423517E-1,-2.464765704E0,2.491035257E0
1.216464625E0,2.642779215E-1,5.448419465E-1,-7.559970367E-1,9.686212293E-1
1.226425625E0,3.594053958E-1,5.107839619E-1,-7.635282505E-1,9.864318950E-1
1.236387625E0,-5.198921697E-1,2.881911331E0,3.485145181E0,4.552135513E0
1.246348625E0,3.374181108E-1,3.548638050E0,6.943694302E0,7.805227322E0
1.256309625E0,2.341705642E0,3.132199351E0,1.084409178E1,1.152773112E1
1.266270625E0,4.368801261E0,1.953236661E0,1.424311332E1,1.502557270E1
1.276232625E0,5.775701866E0,4.498931046E-1,1.738920537E1,1.832881882E1
1.286193625E0,6.278779929E0,-8.296225449E-1,2.006519531E1,2.104099365E1
1.296154625E0,5.993415340E0,-2.089661704E0,2.211267037E1,2.300560593E1
1.306116625E0,5.015229371E0,-3.388891826E0,2.319978003E1,2.397638227E1
1.316077625E0,3.732865981E0,-3.978456640E0,2.297759753E1,2.361635861E1
1.326038625E0,2.550187678E0,-3.350529121E0,2.152058131E1,2.192863249E1
1.336000625E0,2.230659708E0,-2.111931263E0,1.948019307E1,1.972090309E1
1.345961625E0,2.341738533E0,-2.076038715E0,1.946176967E1,1.971177705E1
1.355922625E0,3.434930463E0,6.322957543E-1,1.462474940E1,1.503601809E1
1.365884625E0,3.288933674E0,1.857934062E0,1.126735184E1,1.188369561E1
1.375845625E0,2.407291814E0,2.575012909E0,7.639080271E0,8.413161876E0
1.385806625E0,1.260713489E0,2.917182321E0,4.264946818E0,5.318751973E0
1.395767625E0,2.597830206E-1,3.048474532E0,1.297430495E0,3.323252936E0
1.405729792E0,-3.520577846E-1,3.030390263E0,-1.004842256E0,3.211995920E0
1.415690792E0,-6.985114516E-1,2.767366131E0,-2.944863625E0,4.101031007E0
1.425651792E0,-7.342296070E-1,2.647138022E0,-2.914097330E0,4.004796633E0
1.435613792E0,-1.506260878E0,1.937391584E0,-5.796589290E0,6.294660863E0
1.445574792E0,-2.027708554E0,1.444495424E0,-6.584263033E0,7.039225006E0
1.455535792E0,-2.388153292E0,8.239393437E-1,-7.174167570E0,7.605973475E0
1.465497792E0,-2.621641238E0,2.860153842E-1,-7.728252064E0,8.165824364E0
1.475458792E0,-2.810382342E0,-8.734044492E-2,-8.414269624E0,8.871629533E0
1.485419792E0,-2.837266086E0,-5.182550955E-1,-9.052048824E0,9.500434469E0
1.495381792E0,-2.724062237E0,-9.920033781E-1,-9.524277561E0,9.955724425E0
1.505342792E0,-2.711950606E0,-1.419672678E0,-9.935242682E0,1.039611436E1
1.515303792E0,-2.688432228E0,-1.789185717E0,-1.034146513E1,1.083396300E1
1.525264792E0,-2.666246430E0,-2.163357817E0,-1.075458027E1,1.128937482E1
1.535226792E0,-2.633807539E0,-2.256513610E0,-1.073478861E1,1.128115607E1
1.545187792E0,-2.612433043E0,-2.737749399E0,-1.128670145E1,1.190418867E1
1.555148792E0,-2.456215321E0,-2.887161839E0,-1.152787103E1,1.213509405E1
1.565110792E0,-2.233118316E0,-3.107200750E0,-1.175862204E1,1.236554512E1
1.575071792E0,-2.141488354E0,-3.290256607E0,-1.200580256E1,1.263135210E1
1.585032792E0,-2.004591440E0,-3.503506023E0,-1.220492013E1,1.285507747E1
1.594994792E0,-1.807317055E0,-3.737049664E0,-1.227460841E1,1.295754401E1
1.604955792E0,-1.649218577E0,-3.791074428E0,-1.229149517E1,1.296815410E1
1.614916792E0,-1.560465152E0,-3.808201507E0,-1.213553590E1,1.281439354E1
1.624878792E0,-1.500454009E0,-3.828151038E0,-1.213444598E1,1.281213806E1
1.634839792E0,-1.403402800E0,-3.889608783E0,-1.109476543E1,1.184028782E1
1.644800792E0,-1.175328572E0,-3.776333305E0,-1.044382648E1,1.116761398E1
1.654761792E0,-8.649422856E-1,-3.622740106E0,-9.428059289E0,1.013709391E1
1.664723792E0,-6.000350576E-1,-3.273074271E0,-8.184857626E0,8.835437262E0
1.674684792E0,-4.735036498E-1,-2.751311139E0,-6.788646609E0,7.340275299E0
1.684645792E0,-4.237034257E-1,-2.267826803E0,-5.035560139E0,5.538901418E0
1.694607792E0,-3.439573444E-1,-1.893938293E0,-2.834138410E0,3.426025312E0
1.704568792E0,-4.557306723E-1,-1.419525913E0,-1.738476616E-1,1.500988765E0
1.714529792E0,-9.242454046E-1,-4.361175030E-1,2.785048111E0,2.966634630E0
1.724491792E0,-9.357264125E-1,9.308170903E-1,5.960959784E0,6.105329305E0
1.734452792E0,1.739904799E-1,1.629178415E0,9.089070470E0,9.235566956E0
1.744413792E0,2.586430475E0,1.382466260E0,1.241422121E1,1.275592897E1
1.754375792E0,5.459410184E0,6.298797579E-1,1.657647981E1,1.746372214E1
1.764336792E0,7.609430210E0,-2.796411882E-1,2.051296572E1,2.188066247E1
1.774297792E0,8.756604804E0,-1.525924480E0,2.404009041E1,2.563069488E1
1.784258792E0,8.858850971E0,-2.762506510E0,2.730819045E1,2.884177436E1
1.794220792E0,8.816363348E0,-3.499622303E0,2.883912716E1,3.035903283E1
1.804181792E0,7.951906309E0,-3.194718073E0,2.798499397E1,2.926771130E1
1.814142792E0,5.882703574E0,-1.329111587E0,2.448289303E1,2.521477325E1
1.824104792E0,3.973816874E0,1.144787322E0,1.940523879E1,1.984099420E1
1.834065792E0,2.985445640E0,2.887721417E0,1.516203367E1,1.572065793E1
1.844026792E0,2.386433041E0,4.088496268E0,1.258248537E1,1.344357848E1
1.853988792E0,1.783415977E0,4.813194621E0,1.145435983E1,1.255188329E1
1.863949792E0,9.067692465E-1,5.044095905E0,1.065472620E1,1.182321125E1
1.873910792E0,3.861355036E-2,4.860047776E0,9.716070912E0,1.086386623E1
1.883872792E0,-7.302460451E-1,4.429116168E0,8.308598158E0,9.443682156E0
1.893833792E0,-1.516489705E0,4.012742958E0,6.154511978E0,7.501990720E0
1.903794792E0,-2.070797855E0,3.564060373E0,3.564533413E0,5.449461309E0
1.913755792E0,-2.675796395E0,3.105560313E0,7.772949350E-1,4.172358880E0
1.923717792E0,-2.967786756E0,2.383846525E0,-1.988662602E0,4.294794690E0
1.933678792E0,-2.693816052E0,1.225571138E0,-4.677540388E0,5.535165184E0
1.943639792E0,-2.054073941E0,-7.188990846E-2,-7.294398603E0,7.578432483E0
1.953601792E0,-1.553072518E0,-1.267559555E0,-9.751913175E0,9.955830053E0
1.963562792E0,-1.297694935E0,-2.261579930E0,-1.193456008E1,1.221607466E1
1.973523792E0,-1.138653447E0,-3.010963182E0,-1.366739764E1,1.404137419E1
1.983485792E0,-9.820965137E-1,-3.495371962E0,-1.503305813E1,1.546528290E1
1.993446792E0,-6.724662720E-1,-3.898719037E0,-1.585029071E1,1.633658277E1
2.003407792E0,-9.797926194E-2,-4.286483575E0,-1.638170438E1,1.693351056E1
2.013368792E0,5.038326457E-1,-4.789254951E0,-1.699363187E1,1.766279521E1
2.023330792E0,7.404144263E-1,-5.180184002E0,-1.743569073E1,1.820400591E1
2.033291792E0,6.009749975E-1,-5.353987809E0,-1.744383590E1,1.825688274E1
2.043252792E0,4.220744645E-1,-5.616530716E0,-1.701079228E1,1.791900160E1
2.053214792E0,2.534499744E-1,-5.918155242E0,-1.627878403E1,1.732303691E1
2.063175792E0,2.008644474E-1,-6.195346009E0,-1.525985993E1,1.647076148E1
2.073136792E0,1.493056915E-1,-6.341873724E0,-1.404991196E1,1.541563105E1
2.083098792E0,5.068083303E-2,-6.319087125E0,-1.280184717E1,1.427657948E1
2.093059792E0,-1.354381425E-2,-6.217755463E0,-1.165609462E1,1.321079892E1
2.103020792E0,6.259170268E-3,-6.030552760E0,-1.066089969E1,1.224836266E1
2.112982792E0,8.514640516E-2,-5.807775598E0,-9.609965583E0,1.122893342E1
2.122943792E0,1.504859886E-1,-5.531037991E0,-8.484122216E0,1.012893662E1
2.132904792E0,2.307619737E-1,-5.225235044E0,-7.331018545E0,9.005563018E0
2.142865792E0,3.052575111E-1,-4.859403997E0,-5.863089674E0,7.621207901E0
2.152827792E0,2.885672553E-1,-4.313869302E0,-4.189913008E0,6.020640367E0
2.162788792E0,2.413249322E-1,-3.605817094E0,-2.500985112E0,4.394892624E0
2.172749792E0,3.848850766E-1,-2.857517040E0,-6.932733697E-1,2.965496269E0
2.182711792E0,1.345009874E0,-2.292755238E0,1.593933445E0,3.099419618E0
2.192672792E0,3.142638093E0,-1.685675089E0,3.919691538E0,5.299212813E0
2.202633792E0,5.013372295E0,-5.431592640E-1,6.132657425E0,7.939673220E0
2.212595792E0,7.005421019E0,3.908214623E-1,8.596301048E0,1.109617307E1
2.222556792E0,8.531059570E0,7.108632562E-1,1.048851558E1,1.353858423E1
2.232517792E0,8.731596848E0,1.039386729E0,1.083209563E1,1.395189608E1
2.242479792E0,7.130716910E0,1.371605642E0,1.065484782E1,1.289396012E1
2.252440792E0,5.185994380E0,1.641506976E0,1.170707182E1,1.290909034E1
2.262401792E0,4.282912680E0,1.671117861E0,1.432878907E1,1.504826143E1
2.272362792E0,3.752831591E0,1.799578266E0,1.744537840E1,1.793497852E1
2.282324792E0,3.258777244E0,1.899595766E0,1.958227610E1,1.994225741E1
2.292285792E0,2.739158578E0,2.046886836E0,2.014658855E1,2.043471961E1
2.302246792E0,2.051905940E0,2.853520468E0,1.981547944E1,2.012476391E1
2.312208792E0,1.799281081E0,4.009722286E0,1.918517532E1,1.968212989E1
2.322169792E0,1.785817282E0,4.904196885E0,1.805686618E1,1.879602901E1
2.332130792E0,1.280891207E0,5.693582400E0,1.593117642E1,1.696643583E1
2.342092792E0,2.992701450E-1,5.968530174E0,1.292854581E1,1.424290040E1
2.352053792E0,-1.136194839E0,5.645437011E0,9.593798032E0,1.118940831E1
2.362014792E0,-2.821226588E0,4.987356863E0,6.352089395E0,8.554652981E0
2.371976792E0,-4.298601052E0,4.223819257E0,3.629324656E0,7.034956828E0
2.381937792E0,-5.310566386E0,3.424812441E0,1.592738859E0,6.516768576E0
2.391898792E0,-5.887275512E0,2.650074493E0,-2.375255942E-2,6.456273844E0
2.401859542E0,-6.199978758E0,2.001738438E0,-1.488021659E0,6.682881252E0
2.411821542E0,-6.278275899E0,1.290383431E0,-2.815446616E0,7.000612638E0
2.421782542E0,-6.206425897E0,5.374210989E-1,-4.053664697E0,7.432411542E0
2.431743542E0,-6.067384372E0,-1.099025112E-1,-5.217828961E0,8.003185037E0
2.441705542E0,-5.837446125E0,-6.980885518E-1,-6.180102317E0,8.529757883E0
2.451666542E0,-5.556175171E0,-1.305120753E0,-6.971762692E0,9.009988776E0
2.461627542E0,-5.341391737E0,-1.751885451E0,-7.639365031E0,9.484696431E0
2.471589542E0,-5.217488653E0,-1.878861247E0,-8.122887080E0,9.835324191E0
2.481550542E0,-5.062615791E0,-1.811826721E0,-8.488559668E0,1.004830533E1
2.491511542E0,-4.790372354E0,-1.701690613E0,-8.998249177E0,1.033498459E1
2.501472542E0,-4.364527824E0,-1.717232220E0,-9.552654684E0,1.064195476E1
2.511434542E0,-3.668577599E0,-1.901113119E0,-1.004343020E1,1.086016496E1
2.521395542E0,-2.913620490E0,-2.103969694E0,-1.060482372E1,1.119723890E1
2.531356542E0,-2.198975839E0,-2.283682990E0,-1.112192106E1,1.156493973E1
2.541318542E0,-1.643885185E0,-2.395756280E0,-1.141413216E1,1.177813311E1
2.551279542E0,-1.258262336E0,-2.420246758E0,-1.140530052E1,1.172696459E1
2.561240542E0,-9.356311760E-1,-2.380955516E0,-1.107746819E1,1.136902179E1
2.571202542E0,-5.581025545E-1,-2.385209950E0,-1.038561511E1,1.067060009E1
2.581163542E0,-2.676687949E-1,-2.402665058E0,-9.458832600E0,9.762886874E0
2.591124542E0,-2.169309698E-2,-2.475460554E0,-8.386460851E0,8.744203860E0
2.601086542E0,6.444640294E-2,-2.423309822E0,-7.249296690E0,7.643879011E0
2.611047542E0,8.746696405E-2,-2.283264330E0,-6.167216808E0,6.576892095E0
2.621008542E0,2.118810220E-1,-2.179361939E0,-5.160572441E0,5.605891539E0
2.630969542E0,4.045212693E-1,-2.019501987E0,-4.373862904E0,4.834532287E0
2.640931542E0,8.007410272E-1,-1.714082910E0,-3.806685909E0,4.250896849E0
2.650892542E0,1.600566380E0,-1.423635044E0,-3.039494963E0,3.718478063E0
2.660853542E0,2.514003645E0,-8.121004862E-1,-1.780100021E0,3.185667530E0
2.670815542E0,3.557055409E0,1.278914702E-1,1.201602817E-2,3.559374074E0
2.680776542E0,4.774550958E0,9.056562290E-1,1.962690439E0,5.241059417E0
2.690737542E0,6.030793666E0,1.052707271E0,4.257448933E0,7.456844926E0
2.700699542E0,6.924832939E0,6.404122013E-1,7.254015977E0,1.004908886E1
2.710660542E0,7.625968475E0,-1.872594202E-1,1.053930216E1,1.301027868E1
2.720621542E0,7.986460429E0,-1.354317764E0,1.367286479E1,1.589229242E1
2.730582542E0,7.671163359E0,-2.378573506E0,1.638989633E1,1.825193308E1
2.740544542E0,6.762766832E0,-2.843538394E0,1.820073107E1,1.962364231E1
2.750505542E0,5.404179139E0,-2.453610971E0,1.843339529E1,1.936531489E1
2.760466542E0,3.802623848E0,-1.411339226E0,1.774806069E1,1.820564431E1
2.770428542E0,2.559775942E0,-3.474045704E-1,1.713858669E1,1.733217518E1
2.780389542E0,2.145284951E0,3.756917918E-1,1.648043345E1,1.662372036E1
2.790350542E0,2.107792458E0,1.094097591E0,1.630374696E1,1.647580055E1
2.800312542E0,1.691863782E0,1.878027727E0,1.605807971E1,1.625580866E1
2.810273542E0,9.415557942E-1,2.226087624E0,1.478213539E1,1.497843517E1
2.820234542E0,4.258541778E-2,2.160256454E0,1.236314695E1,1.255053481E1
2.830195542E0,-1.131321916E0,2.261153815E0,9.314578866E0,9.651636406E0
2.840157542E0,-2.111190713E0,2.456191932E0,6.167540159E0,6.966244085E0
2.850118542E0,-2.658759363E0,2.477766988E0,3.333966005E0,4.931902262E0
2.860079542E0,-2.797622548E0,2.380289664E0,1.057674188E0,3.822452811E0
2.870041542E0,-2.850315317E0,2.179662632E0,-8.789768457E-1,3.694296535E0
2.880002542E0,-2.866882818E0,1.963467534E0,-2.540583626E0,4.304507755E0
2.889963542E0,-2.909699347E0,1.841373140E0,-3.965080549E0,5.251558729E0
2.899925542E0,-2.836514426E0,1.681597241E0,-5.072594649E0,6.050190067E0
2.909886542E0,-2.609444823E0,1.455263218E0,-6.069486446E0,6.765032079E0
2.919847542E0,-2.335581561E0,1.202143245E0,-7.024740804E0,7.499804863E0
2.929809542E0,-2.032839778E0,9.756930086E-1,-7.905270671E0,8.220566817E0
2.939770542E0,-1.738357333E0,8.130210572E-1,-8.663261608E0,8.873273981E0
2.949731542E0,-1.496131162E0,6.591298695E-1,-9.358340598E0,9.500073651E0
2.959692542E0,-1.306130713E0,4.786753658E-1,-9.985269120E0,1.008170159E1
2.969654542E0,-1.224334160E0,2.945102191E-1,-1.057393872E1,1.064865769E1
2.979615542E0,-1.114924276E0,2.286831424E-2,-1.104405603E1,1.110021409E1
2.989576542E0,-8.986726069E-1,-3.114088185E-1,-1.146242314E1,1.150181430E1
2.999538542E0,-6.910193411E-1,-5.361217014E-1,-1.188832498E1,1.192045322E1
3.009499542E0,-3.959830553E-1,-7.560579939E-1,-1.207772799E1,1.210784620E1
3.019460542E0,1.357504204E-3,-1.128528701E0,-1.212753925E1,1.217993379E1
3.029422542E0,3.598436081E-1,-1.523391759E0,-1.213848056E1,1.223899179E1
3.039383542E0,6.293586248E-1,-1.876501311E0,-1.216488658E1,1.232484544E1
3.049344542E0,7.609788644E-1,-2.170996035E0,-1.214942888E1,1.236531175E1
3.059305542E0,6.597186841E-1,-2.272309279E0,-1.214184387E1,1.237024619E1
3.069267542E0,4.325578643E-1,-2.113455925E0,-1.209555732E1,1.228642784E1
3.079228542E0,6.034194991E-1,-1.871597836E0,-1.193179552E1,1.209275559E1
3.089189542E0,1.166242365E0,-1.435066642E0,-1.164113276E1,1.178709080E1
3.099151542E0,1.175400712E0,-1.447727034E0,-1.163736833E1,1.178583141E1
3.109112542E0,2.031205042E0,-5.483802429E-1,-9.909500899E0,1.013038612E1
3.119073542E0,2.600465546E0,-3.696945950E-1,-8.130930510E0,8.544654827E0
3.129035542E0,3.718402601E0,-1.131779460E0,-4.880631144E0,6.239230963E0
3.138996542E0,4.722769185E0,-2.615562472E0,5.984034652E-1,5.431740286E0
3.148957542E0,4.987521170E0,-3.690930335E0,7.539503943E0,9.764346054E0
3.158919542E0,5.636028841E0,-4.871034694E0,1.332024728E1,1.526174261E1
3.168880542E0,7.004081422E0,-6.726017082E0,1.635832137E1,1.902343661E1
3.178841542E0,7.633472791E0,-7.987501819E0,1.861386960E1,2.164592880E1
3.188802542E0,6.998611937E0,-7.573932933E0,1.895098731E1,2.157510021E1
3.198764542E0,5.838621415E0,-6.537146754E0,1.814040184E1,2.014690960E1
3.208725542E0,5.130181537E0,-5.758497019E0,1.757322426E1,1.919107244E1
3.218686542E0,4.419461538E0,-4.814088076E0,1.776503515E1,1.892890801E1
3.228648542E0,3.232780816E0,-3.223052803E0,1.827246238E1,1.883406017E1
3.238609542E0,2.028293129E0,-1.274732773E0,1.800617082E1,1.816483152E1
3.248570542E0,1.351760923E0,2.476944139E-1,1.677993251E1,1.683611432E1
3.258532542E0,8.704868348E-1,1.354668889E0,1.458846041E1,1.467705870E1
3.268493542E0,4.799977136E-1,2.318544967E0,1.181065056E1,1.204564300E1
3.278454542E0,1.292262433E-1,3.054007167E0,8.875793279E0,9.387404621E0
3.288415542E0,-3.455687640E-1,3.531586399E0,6.280491993E0,7.213605198E0
3.298377542E0,-8.936378619E-1,3.891961994E0,3.770450129E0,5.492017022E0
3.308338542E0,-1.378179081E0,4.054732398E0,1.567863634E0,4.560529441E0
3.318299542E0,-1.596768760E0,4.123711709E0,-1.202134913E-1,4.423699811E0
3.328261542E0,-1.571144799E0,4.256785859E0,-1.394484335E0,4.746926204E0
3.338222542E0,-1.517754458E0,4.471971581E0,-2.491451812E0,5.339423241E0
3.348183542E0,-1.588158735E0,4.394370258E0,-2.492411925E0,5.295739357E0
3.358145542E0,-9.528841167E-1,4.677056823E0,-4.825249241E0,6.787184903E0
3.368106542E0,-6.648023265E-1,4.545752918E0,-5.893060747E0,7.472214979E0
3.378067542E0,-5.285111848E-1,4.331074149E0,-6.984305554E0,8.235171609E0
3.388029542E0,-3.681306841E-1,4.046562961E0,-8.007200503E0,8.979167662E0
3.397990542E0,-2.137749352E-1,3.665483837E0,-8.939648967E0,9.664305207E0
3.407951167E0,-8.809955969E-2,3.196857569E0,-9.693191927E0,1.020713621E1
3.417912167E0,3.370057359E-2,2.660562644E0,-1.032887022E1,1.066608126E1
3.427874167E0,6.321315207E-2,2.507449794E0,-1.032969936E1,1.062986308E1
3.437835167E0,-6.255234361E-2,1.658824821E0,-1.103645699E1,1.116060014E1
3.447796167E0,-2.649476469E-1,1.210288271E0,-1.109009116E1,1.115908226E1
3.457758167E0,-4.436081517E-1,6.923506059E-1,-1.090945430E1,1.094039902E1
3.467719167E0,-6.078823864E-1,1.963885318E-1,-1.057210504E1,1.059138775E1
3.477680167E0,-7.314268173E-1,-1.769108717E-1,-1.011598596E1,1.014393684E1
3.487642167E0,-8.622373637E-1,-4.297264232E-1,-9.412812089E0,9.461984438E0
3.497603167E0,-9.670234881E-1,-5.955803563E-1,-8.515600117E0,8.591000858E0
3.507564167E0,-1.050886594E0,-6.838039501E-1,-7.331378149E0,7.437812584E0
3.517525167E0,-1.066250592E0,-5.853567921E-1,-5.820069954E0,5.945817620E0
3.527487167E0,-1.017528960E0,-5.115366447E-1,-4.032569697E0,4.190304677E0
3.537448167E0,-9.988331453E-1,-6.784003188E-1,-1.827664781E0,2.190491542E0
3.547409167E0,-1.030167278E0,-7.588530361E-1,6.807778698E-1,1.449331245E0
3.557371167E0,-1.261009651E0,-6.134484241E-1,3.556539100E0,3.823013821E0
3.567332167E0,-9.687580647E-1,-5.495779719E-1,6.590699063E0,6.684148583E0
3.577293167E0,5.743294550E-1,-9.185646153E-1,9.097498646E0,9.161773676E0
3.587255167E0,2.718756473E0,-2.105098792E0,1.113982992E1,1.165842563E1
3.597216167E0,2.609595681E0,-2.078679463E0,1.115524552E1,1.164347029E1
3.607177167E0,5.326945606E0,-5.159806455E0,1.368816344E1,1.556810106E1
3.617138167E0,5.701080869E0,-6.361478854E0,1.482116556E1,1.710665615E1
3.627100167E0,5.806160597E0,-6.076831718E0,1.479477473E1,1.701542665E1
3.637061167E0,5.595132830E0,-7.981625952E0,1.552453180E1,1.833092884E1
3.647022167E0,3.754027639E0,-7.808267702E0,1.524426423E1,1.753423394E1
3.656984167E0,1.551934796E0,-6.999724662E0,1.457276765E1,1.624100378E1
3.666945167E0,-8.119478373E-2,-5.831626976E0,1.392104986E1,1.509337917E1
3.676906167E0,-1.187230653E0,-4.156825368E0,1.303902895E1,1.373699347E1
3.686868167E0,-1.639082867E0,-2.222296874E0,1.116885199E1,1.150514888E1
3.696829167E0,-1.668565552E0,-8.041067576E-1,8.530156760E0,8.728933098E0
3.706790167E0,-1.901881735E0,6.685092419E-1,5.961445688E0,6.293082983E0
3.716751167E0,-1.861398684E0,2.077123958E0,3.427909126E0,4.419254459E0
3.726713167E0,-1.293641792E0,2.954569418E0,1.447656575E0,3.535349924E0
3.736674167E0,-8.421646763E-1,3.552357464E0,1.938293517E-2,3.650871210E0
3.746635167E0,-7.534381489E-1,4.425394123E0,-1.306111856E0,4.675223029E0
3.756597167E0,-8.815966176E-1,5.347620192E0,-2.583207489E0,6.003933314E0
3.766558167E0,-1.152379201E0,5.883309345E0,-3.741154994E0,7.066650364E0
3.776519167E0,-1.485187806E0,6.067518858E0,-4.970108746E0,7.982640469E0
3.786481167E0,-1.833631572E0,6.121726640E0,-6.281224650E0,8.960553827E0
3.796442167E0,-2.352457210E0,6.194808065E0,-7.369929426E0,9.910880972E0
3.806403167E0,-2.908546861E0,6.396034729E0,-8.318819091E0,1.088906131E1
3.816364167E0,-3.259941717E0,6.518118744E0,-9.169814086E0,1.171317986E1
3.826326167E0,-3.194675096E0,6.357785168E0,-9.204017374E0,1.163362871E1
3.836287167E0,-2.695370534E0,5.866274652E0,-1.080578667E1,1.258742334E1
3.846248167E0,-2.618942163E0,5.689868249E0,-1.083629160E1,1.251633630E1
3.856210167E0,-1.677554622E0,4.623427330E0,-1.184274242E1,1.282344797E1
3.866171167E0,-1.176971274E0,3.971090317E0,-1.212418061E1,1.281212609E1
3.876132167E0,-7.221925288E-1,3.419631808E0,-1.222502987E1,1.271482596E1
3.886094167E0,-4.430561746E-1,2.975028533E0,-1.204126475E1,1.241125096E1
3.896055167E0,1.590077206E-2,2.668913930E0,-1.160907365E1,1.191192451E1
3.906016167E0,7.550066645E-1,2.529522448E0,-1.115883688E1,1.146682865E1
3.915977167E0,6.583702431E-1,2.506828820E0,-1.048160417E1,1.079729911E1
3.925939167E0,2.324238072E-2,2.318426561E0,-9.573352073E0,9.850112275E0
3.935900167E0,-1.689110402E-1,1.845813662E0,-8.996873912E0,9.185820552E0
3.945861167E0,-3.957462797E-1,1.281409416E0,-8.770454519E0,8.872400898E0
3.955823167E0,-4.117079359E-1,5.497194745E-1,-8.804705755E0,8.831451656E0
3.965784167E0,-2.103736098E-1,-5.592342466E-1,-8.327999804E0,8.349406011E0
3.975745167E0,3.561039848E-1,-1.886106240E0,-7.033947830E0,7.291133579E0
3.985707167E0,1.073350866E0,-2.960746416E0,-4.870738240E0,5.800188999E0
3.995668167E0,1.442057866E0,-3.618099171E0,-1.282860403E0,4.100719853E0
4.005629167E0,1.851338403E0,-4.282228848E0,3.345103782E0,5.740614697E0
4.015590167E0,2.332765980E0,-5.110827838E0,7.993083571E0,9.769940802E0
4.025552167E0,2.327018606E0,-5.023449386E0,7.986680285E0,9.717876378E0
4.035513167E0,3.911960349E0,-6.997901500E0,1.515435511E1,1.714434419E1
4.045474167E0,5.457502238E0,-8.025625665E0,1.717139775E1,1.972439857E1
4.055436167E0,6.841262194E0,-8.875364678E0,1.844724968E1,2.158416057E1
4.065397167E0,7.258655158E0,-8.709241773E0,1.922957907E1,2.232298542E1
4.075358167E0,6.750973583E0,-7.491014737E0,1.928971885E1,2.176658447E1
4.085320167E0,5.726957722E0,-6.164965045E0,1.836854031E1,2.020416076E1
4.095281167E0,4.607051618E0,-5.007849600E0,1.714341415E1,1.844451493E1
4.105242167E0,4.130627211E0,-3.942973396E0,1.626512961E1,1.723843269E1
4.115203167E0,4.241340731E0,-2.963004611E0,1.566553507E1,1.649779854E1
4.125165167E0,3.871194439E0,-1.724636841E0,1.456918214E1,1.517305463E1
4.135126167E0,2.849531790E0,-2.571789997E-1,1.265054930E1,1.297005667E1
4.145087167E0,1.661158445E0,1.005317634E0,1.024350438E1,1.042590490E1
4.155049167E0,4.785194644E-1,1.934120944E0,7.702298613E0,7.955828594E0
4.165010167E0,-7.699081475E-1,2.876440676E0,5.204894335E0,5.996465172E0
4.174971167E0,-1.889891581E0,3.872227349E0,3.029528968E0,5.267246017E0
4.184933167E0,-2.604888965E0,4.531228726E0,1.163391847E0,5.354527139E0
4.194894167E0,-3.097761882E0,4.900467823E0,-5.001410061E-1,5.819008042E0
4.204855167E0,-3.476556791E0,5.102494386E0,-1.938401690E0,6.471421575E0
4.214816167E0,-3.760366898E0,5.085062667E0,-3.170752090E0,7.074736062E0
4.224778167E0,-3.646138909E0,5.100444353E0,-3.180348541E0,7.030183381E0
4.234739167E0,-4.289884023E0,4.775760162E0,-5.193119212E0,8.257086484E0
4.244700167E0,-4.429309418E0,4.604226243E0,-6.121380485E0,8.848106027E0
4.254662167E0,-4.346377189E0,4.303031780E0,-7.016267604E0,9.307797176E0
4.264623167E0,-3.996345611E0,3.816296977E0,-7.929230222E0,9.664760358E0
4.274584167E0,-3.602510202E0,3.377484493E0,-8.819298651E0,1.010769558E1
4.284546167E0,-3.200543946E0,2.958040617E0,-9.705020844E0,1.063865196E1
4.294507167E0,-2.827962289E0,2.584353251E0,-1.060140544E1,1.127235777E1
4.304468167E0,-2.475355304E0,2.189300890E0,-1.143070551E1,1.189880039E1
4.314429167E0,-2.134684533E0,1.719673871E0,-1.198649973E1,1.229594779E1
4.324391167E0,-1.854023152E0,1.342271184E0,-1.225891215E1,1.247076665E1
4.334352167E0,-1.538913192E0,1.008411908E0,-1.236294815E1,1.249910538E1
4.344313167E0,-1.244907296E0,7.115792477E-1,-1.226184862E1,1.234540687E1
4.354275167E0,-1.008587763E0,5.057196153E-1,-1.183819797E1,1.189184312E1
4.364236167E0,-7.044961499E-1,3.861173042E-1,-1.119585092E1,1.122463715E1
4.374197167E0,-3.219675378E-1,3.110506766E-1,-1.052946480E1,1.053897740E1
4.384159167E0,6.906301724E-2,2.243056244E-1,-9.798319602E0,9.801130023E0
4.394120167E0,3.996123490E-1,1.320012588E-1,-9.045089468E0,9.054874811E0
4.404081125E0,6.757576697E-1,5.176817760E-2,-8.141745520E0,8.169905048E0
4.414042125E0,7.961329827E-1,1.073274706E-1,-7.169112652E0,7.213981087E0
4.424004125E0,7.421188896E-1,5.553597718E-2,-7.160709618E0,7.199276834E0
4.433965125E0,8.030853222E-1,-3.335017920E-2,-4.461982782E0,4.533800682E0
4.443926125E0,6.577203982E-1,-2.442744505E-1,-2.135562785E0,2.247864440E0
4.453888125E0,6.544749011E-1,-3.466170967E-1,5.409235811E-1,9.171036629E-1
4.463849125E0,9.398190250E-1,-2.376485319E-1,3.329530308E0,3.467781523E0
4.473810125E0,2.072998016E0,-4.308656801E-1,6.428997238E0,6.768675756E0
4.483772125E0,3.950347612E0,-1.416297226E0,9.811990392E0,1.067175241E1
4.493733125E0,6.035541020E0,-2.837135985E0,1.315282512E1,1.474699646E1
4.503694125E0,7.565829277E0,-4.354303967E0,1.627816189E1,1.847106630E1
4.513655125E0,8.202481134E0,-5.822553266E0,1.839517906E1,2.096581589E1
4.523617125E0,8.048237432E0,-6.688321837E0,1.947986212E1,2.211272943E1
4.533578125E0,7.646076465E0,-6.341270292E0,1.924352819E1,2.165612088E1
4.543539125E0,7.360002024E0,-5.212981619E0,1.780427933E1,1.995838594E1
4.553501125E0,6.831337130E0,-3.882068213E0,1.563127156E1,1.749497845E1
4.563462125E0,5.763818570E0,-2.822441640E0,1.363249327E1,1.506760280E1
4.573423125E0,4.357774290E0,-2.162230036E0,1.275063024E1,1.364712450E1
4.583385125E0,2.111614636E0,-1.643647350E0,1.250382161E1,1.278694834E1
4.593346125E0,-2.845195203E-1,-9.046416640E-1,1.234680048E1,1.238316639E1
4.603307125E0,-1.462782445E0,-4.365531206E-2,1.185306510E1,1.194306453E1
4.613268125E0,-1.503045933E0,5.550774244E-1,1.036968145E1,1.049273803E1
4.623230125E0,-1.267067366E0,1.095735980E0,7.706659466E0,7.886615064E0
4.633191125E0,-1.304424934E0,1.784459120E0,4.233882900E0,4.776147315E0
4.643152125E0,-1.875672468E0,2.412810708E0,4.092442846E-1,3.083388332E0
4.653114125E0,-2.865718052E0,2.634309230E0,-2.943433396E0,4.880135780E0
4.663075125E0,-3.817873387E0,2.337340842E0,-5.279791905E0,6.922103869E0
4.673036125E0,-4.764873816E0,1.904345606E0,-6.745280734E0,8.475220755E0
4.682998125E0,-5.381450427E0,1.381774534E0,-7.545549379E0,9.370412210E0
4.692959125E0,-5.995956540E0,1.080050898E0,-8.246338175E0,1.025280928E1
4.702920125E0,-6.322756838E0,8.998908743E-1,-9.057972638E0,1.108304678E1
4.712881125E0,-6.054730412E0,7.120338687E-1,-9.726852009E0,1.147947745E1
4.722843125E0,-5.392834956E0,5.049308990E-1,-1.055876871E1,1.186698027E1
4.732804125E0,-4.751844465E0,1.889511658E-1,-1.168441152E1,1.261511795E1
4.742765125E0,-4.372269537E0,-8.611983865E-2,-1.281088697E1,1.353672717E1
4.752727125E0,-3.945215511E0,-3.487965001E-1,-1.369569115E1,1.425686994E1
4.762688125E0,-3.246252508E0,-6.462809055E-1,-1.442881271E1,1.480359654E1
4.772649125E0,-2.431947037E0,-1.173945779E0,-1.484534145E1,1.508895881E1
4.782611125E0,-1.837885422E0,-1.801858241E0,-1.464326636E1,1.486774245E1
4.792572125E0,-1.588339414E0,-2.246557703E0,-1.383366556E1,1.410461436E1
4.802533125E0,-1.509267663E0,-2.382778385E0,-1.247465336E1,1.278954644E1
4.812494125E0,-1.502529916E0,-2.315360720E0,-1.076690620E1,1.111506907E1
4.822456125E0,-1.452006465E0,-2.187480505E0,-8.939563013E0,9.317144444E0
4.832417125E0,-1.230871932E0,-2.110045829E0,-7.034885139E0,7.446942193E0
4.842378125E0,-7.559259930E-1,-1.976954137E0,-5.352718379E0,5.755985216E0
4.852340125E0,-2.407181740E-2,-1.849087518E0,-4.034695160E0,4.438295746E0
4.862301125E0,8.605398439E-1,-1.789495327E0,-2.940370039E0,3.548041476E0
4.872262125E0,8.735310414E-1,-1.769557783E0,-2.946509616E0,3.546309370E0
4.882224125E0,1.802695709E0,-1.042233884E0,-1.533877863E0,2.586260734E0
4.892185125E0,1.965381766E0,-7.327391517E-1,-8.211356038E-1,2.252530984E0
4.902146125E0,2.017703383E0,-5.484360838E-1,2.760686857E-1,2.109057372E0
4.912107125E0,2.456531070E0,-2.311591458E-1,1.657977414E0,2.972687093E0
4.922069125E0,3.029286894E0,5.303814898E-1,3.308324211E0,4.516956131E0
4.932030125E0,3.874787260E0,1.385559729E0,5.252286603E0,6.672350908E0
4.941991125E0,5.177942764E0,1.845248382E0,7.296004248E0,9.134971858E0
4.951953125E0,6.471894751E0,2.200566866E0,9.506147684E0,1.170874716E1
4.961914125E0,7.507363552E0,2.715334682E0,1.184428141E1,1.428357630E1
4.971875125E0,7.970037940E0,2.973003642E0,1.411780515E1,1.648249610E1
4.981837125E0,7.763227769E0,2.871326702E0,1.617327687E1,1.816829951E1
4.991798125E0,7.066837249E0,2.532165390E0,1.775035280E1,1.927244340E1
5.001759125E0,6.028077634E0,2.108870977E0,1.866807095E1,1.973022883E1
5.011720125E0,5.142750127E0,1.881142831E0,1.904562801E1,1.981722794E1
5.021682125E0,4.572544275E0,1.613812224E0,1.896538082E1,1.957544944E1
5.031643125E0,3.877185788E0,1.376348464E0,1.840525030E1,1.885948418E1
5.041604125E0,2.791804861E0,1.435451243E0,1.725851191E1,1.754169114E1
5.051566125E0,1.368814035E0,1.518762956E0,1.564142349E1,1.577448641E1
5.061527125E0,-7.540598541E-2,1.543386459E0,1.344184948E1,1.353037492E1
5.071488125E0,-1.084797375E0,1.412677946E0,1.080004938E1,1.094593582E1
5.081450125E0,-1.840580404E0,1.231792283E0,7.932476596E0,8.235850496E0
5.091411125E0,-2.379979323E0,1.068741432E0,5.027498583E0,5.664119687E0
5.101372125E0,-2.822967597E0,9.790408319E-1,2.149946351E0,3.681023814E0
5.111333125E0,-3.125370388E0,7.741054250E-1,-6.922343194E-1,3.293382398E0
5.121295125E0,-3.274489005E0,5.727359426E-1,-3.609541186E0,4.907045168E0
5.131256125E0,-3.463979430E0,3.977887121E-1,-6.485183718E0,7.363083403E0
5.141217125E0,-3.740235227E0,1.829570389E-1,-8.765064556E0,9.531484118E0
5.151179125E0,-3.723139430E0,4.289254278E-2,-8.739556078E0,9.499655121E0
5.161140125E0,-3.529081160E0,-6.096888837E-1,-1.161738371E1,1.215688030E1
5.171101125E0,-3.244468230E0,-1.108677988E0,-1.234962819E1,1.281674910E1
5.181063125E0,-3.198109458E0,-1.456838604E0,-1.263437122E1,1.311402375E1
5.191024125E0,-3.256049518E0,-1.729629487E0,-1.292931881E1,1.344472988E1
5.200985125E0,-3.279335177E0,-1.831019475E0,-1.290315135E1,1.343867502E1
5.210946125E0,-3.657590681E0,-2.311162857E0,-1.351261366E1,1.418838156E1
5.220908125E0,-3.663688157E0,-2.558742154E0,-1.381373708E1,1.451857790E1
5.230869125E0,-3.435271063E0,-2.609312384E0,-1.402238093E1,1.467094971E1
5.240830125E0,-2.931335506E0,-2.747423033E0,-1.406743256E1,1.462989132E1
5.250792125E0,-3.045471987E0,-2.843797718E0,-1.402655585E1,1.463237349E1
5.260753125E0,-1.685271047E0,-2.825732745E0,-1.250986529E1,1.293528637E1
5.270714125E0,-1.230633073E0,-2.667146316E0,-1.115276045E1,1.153309121E1
5.280676125E0,-9.276626636E-1,-2.598001530E0,-9.530551039E0,9.921772678E0
5.290637125E0,-7.832349752E-1,-2.648752438E0,-7.765607586E0,8.242208908E0
5.300598125E0,-8.486360823E-1,-2.553609761E0,-7.785826088E0,8.237729899E0
5.310559125E0,-9.510754998E-1,-2.678660069E0,-4.756176082E0,5.540846081E0
5.320521125E0,-9.527808402E-1,-2.583594867E0,-4.783611218E0,5.519573358E0
5.330482125E0,-1.426249626E0,-2.525799526E0,-2.826388510E0,4.049978179E0
5.340443125E0,-1.216908781E0,-2.292480711E0,-2.188811039E0,3.395177250E0
5.350405125E0,-1.155888846E0,-2.271163809E0,-2.203234951E0,3.368754714E0
5.360366125E0,-1.732049064E-1,-1.762678826E0,-1.436906469E0,2.280731634E0
5.370327125E0,1.196047962E-1,-1.238289417E0,-1.022540023E0,1.610358372E0
5.380288125E0,3.570111803E-1,-7.717397878E-1,-2.759102261E-1,8.939607014E-1
5.390250125E0,6.121235912E-1,-4.344039765E-1,1.127746636E0,1.354700919E0
5.400211125E0,6.540531707E-1,-4.852615964E-1,1.137741281E0,1.399185331E0
5.410172375E0,5.076377213E-1,1.226877991E0,5.453170620E0,5.612485677E0
5.420134375E0,4.957596143E-1,1.178028890E0,5.468905478E0,5.616267157E0
5.430095375E0,9.474322459E-1,3.024404469E0,1.013788145E1,1.062173670E1
5.440056375E0,1.914191148E0,3.163002775E0,1.194172409E1,1.250093950E1
5.450018375E0,1.876624103E0,3.112269116E0,1.196209813E1,1.250198899E1
5.459979375E0,4.079466121E0,2.760974247E0,1.512912086E1,1.591085544E1
5.469940375E0,4.041916763E0,2.749441491E0,1.513752214E1,1.590726552E1
5.479901375E0,4.485702305E0,1.861404385E0,1.609918096E1,1.681576578E1
5.489863375E0,3.765292885E0,1.504535073E0,1.581865962E1,1.633006578E1
5.499824375E0,3.773230772E0,1.569837947E0,1.579706000E1,1.631713107E1
5.509785375E0,2.148978929E0,8.224287155E-1,1.457275128E1,1.475329045E1
5.519747375E0,2.178471700E0,9.439785880E-1,1.453349775E1,1.472614652E1
5.529708375E0,9.956481669E-1,7.189517096E-1,1.263122074E1,1.269078186E1
5.539669375E0,1.042330802E0,8.390579045E-1,1.259418682E1,1.266507060E1
5.549631375E0,1.200302542E-1,1.186184147E0,8.264846951E0,8.350397309E0
5.559592375E0,-4.341091307E-1,1.212352192E0,5.454357020E0,5.604307190E0
5.569553375E0,-3.756903300E-1,1.235944830E0,5.443076572E0,5.594263617E0
5.579514375E0,-1.750070329E0,1.214350770E0,4.752149105E-2,2.130645968E0
5.589476375E0,-2.244718461E0,1.067884011E0,-2.210707108E0,3.326614367E0
5.599437375E0,-2.232244157E0,1.044635774E0,-2.206190718E0,3.307787080E0
5.609398375E0,-2.482730105E0,3.608445418E-1,-5.555994492E0,6.096165381E0
5.619360375E0,-2.505174642E0,3.301102607E-1,-5.546512647E0,6.094971314E0
5.629321375E0,-2.045160154E0,-5.301385380E-1,-7.560846280E0,7.850485551E0
5.639282375E0,-1.781786942E0,-1.155375314E0,-8.205602378E0,8.475940491E0
5.649244375E0,-1.737070507E0,-1.548541218E0,-8.724390154E0,9.029417335E0
5.659205375E0,-1.862504831E0,-1.674745766E0,-9.234133458E0,9.567806350E0
5.669166375E0,-1.870021719E0,-1.723008684E0,-9.220539851E0,9.564731847E0
5.679127375E0,-2.100181868E0,-1.815743770E0,-1.059059861E1,1.094844593E1
5.689089375E0,-2.069870194E0,-1.940663686E0,-1.125484699E1,1.160698578E1
5.699050375E0,-1.962491049E0,-2.031482054E0,-1.179544312E1,1.212892283E1
5.709011375E0,-1.724341265E0,-1.944936246E0,-1.224440638E1,1.251725279E1
5.718973375E0,-1.701243886E0,-2.007092148E0,-1.222783537E1,1.250770192E1
5.728934375E0,-9.051069561E-1,-1.625862459E0,-1.229151856E1,1.243157576E1
5.738895375E0,-5.172813879E-1,-1.442741113E0,-1.207687780E1,1.217374467E1
5.748857375E0,-7.663119636E-2,-1.311362948E0,-1.167511444E1,1.174878046E1
5.758818375E0,4.804067995E-1,-1.250709780E0,-1.100800444E1,1.108923926E1
5.768779375E0,4.247638182E-1,-1.253836579E0,-1.100128833E1,1.108065320E1
5.778740375E0,8.772116444E-1,-8.923500127E-1,-8.701777802E0,8.791286921E0
5.788702375E0,9.495088115E-1,-7.820031130E-1,-7.243447135E0,7.347150621E0
5.798663375E0,1.075431670E0,-7.603663686E-1,-5.847255414E0,5.993755598E0
5.808624375E0,9.389330256E-1,-7.639013028E-1,-4.534972991E0,4.693732039E0
5.818586375E0,9.024387985E-1,-7.117341989E-1,-4.545901437E0,4.688942442E0
5.828547375E0,1.198123723E-2,-5.181051144E-1,-1.484946023E0,1.572781343E0
5.838508375E0,-4.274899364E-2,-3.839831436E-1,-1.903052348E-1,4.306815684E-1
5.848470375E0,7.414781079E-3,-3.890693441E-1,-1.954548776E-1,4.354681879E-1
5.858431375E0,6.911870831E-1,-2.136174989E-1,3.026032333E0,3.111309001E0
5.868392375E0,7.210314180E-1,-2.296543649E-1,3.027142720E0,3.120291730E0
5.878353375E0,1.654938908E0,1.247359910E0,8.813820979E0,9.054179686E0
5.888315375E0,2.608356364E0,1.602154923E0,1.224781413E1,1.262455442E1
5.898276375E0,4.144019674E0,1.200244801E0,1.536031041E1,1.595470535E1
5.908237375E0,5.525773158E0,3.208864242E-1,1.735855894E1,1.821967907E1
5.918199375E0,5.404788419E0,3.364715928E-1,1.737276066E1,1.819719110E1
5.928160375E0,6.330748227E0,-1.036107318E0,1.847357502E1,1.955568627E1
5.938121375E0,5.791171260E0,-6.787205270E-1,1.809403459E1,1.901032388E1
5.948082375E0,5.103041101E0,-1.162353382E-1,1.752533556E1,1.825354557E1
5.958044375E0,4.446902229E0,-4.370764464E-2,1.697153875E1,1.754451417E1
5.968005375E0,4.475300401E0,1.353753215E-1,1.692053466E1,1.750288929E1
5.977966375E0,2.500344842E0,-3.411470264E-1,1.476974631E1,1.498377495E1
5.987928375E0,1.133495764E0,-2.925815150E-2,1.295748602E1,1.300700245E1
5.997889375E0,-6.419643447E-2,4.913777840E-1,1.069475389E1,1.070622876E1
6.007850375E0,-9.199187574E-1,9.652658151E-1,8.311877276E0,8.418152557E0
6.017812375E0,-8.004395302E-1,1.104407913E0,8.276002854E0,8.387648271E0
6.027773375E0,-1.453301184E0,1.490857558E0,5.903370557E0,6.259754351E0
6.037734375E0,-2.590994519E0,1.904758565E0,1.287110159E0,3.463814422E0
6.047695375E0,-2.844523650E0,1.915743583E0,-8.242708808E-1,3.527153350E0
6.057657375E0,-2.755460323E0,1.775046565E0,-2.772860759E0,4.293263175E0
6.067618375E0,-2.747626808E0,1.645080795E0,-2.754627387E0,4.224182280E0
6.077579375E0,-2.008333220E0,1.110083513E0,-6.170100070E0,6.582994957E0
6.087541375E0,-1.758988941E0,7.897366405E-1,-7.585164265E0,7.826393996E0
6.097502375E0,-1.809068004E0,5.603018385E-1,-7.533223448E0,7.767632890E0
6.107463375E0,-1.459604775E0,1.012441005E-1,-9.903210465E0,1.001070797E1
6.117425375E0,-1.489701418E0,-1.477980235E-1,-9.835475149E0,9.948749971E0
6.127386375E0,-1.254247053E0,-8.364804518E-1,-1.153743590E1,1.163551728E1
6.137347375E0,-1.147682937E0,-1.232539850E0,-1.233968909E1,1.245408598E1
6.147308375E0,-1.027504383E0,-1.681262196E0,-1.305037021E1,1.319827907E1
6.157270375E0,-9.338338881E-1,-2.146791778E0,-1.350005618E1,1.370154289E1
6.167231375E0,-8.778332765E-1,-2.313697041E0,-1.344060403E1,1.366651462E1
6.177192375E0,-9.290355898E-1,-2.747994598E0,-1.367530425E1,1.397957537E1
6.187154375E0,-8.623144007E-1,-2.854336739E0,-1.363607762E1,1.395827486E1
6.197115375E0,-8.058406764E-1,-3.171671565E0,-1.292788507E1,1.333563243E1
6.207076375E0,-7.476574454E-1,-3.222684721E0,-1.290959732E1,1.332675473E1
6.217037375E0,-6.591652451E-1,-3.372379289E0,-1.223730318E1,1.271058732E1
6.226999375E0,-5.333503040E-1,-3.403495831E0,-1.148612893E1,1.199163892E1
6.236960375E0,-3.424125466E-1,-3.344969881E0,-1.060358411E1,1.112394111E1
6.246921375E0,-2.968993183E-2,-2.949772654E0,-8.444788581E0,8.945193927E0
6.256883375E0,1.611960777E-1,-2.637937428E0,-7.146312019E0,7.619348629E0
6.266844375E0,1.458120898E-1,-2.587671546E0,-7.167407019E0,7.621615877E0
6.276805375E0,2.246426798E-1,-1.396542847E0,-4.107080181E0,4.343835157E0
6.286767375E0,1.753772932E-1,-1.358006187E0,-4.120231154E0,4.341801788E0
6.296728375E0,8.393454413E-1,-3.522061577E-1,6.716579676E-2,9.127218589E-1
6.306689375E0,1.313920228E0,-2.427044731E-1,3.047710885E0,3.327736989E0
6.316650375E0,1.186585047E0,-2.555163074E-1,3.065024491E0,3.296611562E0
6.326612375E0,2.264529412E0,7.737462598E-1,9.118263863E0,9.427062778E0
6.336573375E0,2.063767894E0,7.052449590E-1,9.174433386E0,9.430097366E0
6.346534375E0,3.243534138E0,9.864413604E-1,1.091771291E1,1.143197425E1
6.356496375E0,4.909980074E0,1.212140669E0,1.265229294E1,1.362562681E1
6.366457375E0,4.777636533E0,1.136894020E0,1.271382670E1,1.362937006E1
6.376418375E0,5.654834656E0,1.987796629E0,1.365449050E1,1.491219639E1
6.386379375E0,5.561983210E0,2.041014770E0,1.364953674E1,1.487989421E1
6.396341375E0,7.022658026E0,1.734988460E0,1.601522313E1,1.757314094E1
6.406302625E0,6.493841690E0,1.679927861E0,1.684930856E1,1.813536149E1
6.416263625E0,5.385527691E0,1.221278405E0,1.648643971E1,1.738672263E1
6.426225625E0,5.408120747E0,1.478517594E0,1.638221660E1,1.731504562E1
6.436186625E0,4.047604058E0,5.883325133E-1,1.493593704E1,1.548584674E1
6.446147625E0,7.480883852E-1,2.075738168E-1,1.092677141E1,1.095431680E1
6.456109625E0,-8.418543354E-2,4.445249221E-1,8.784200739E0,8.795844031E0
6.466070625E0,-4.323040952E-1,6.231595530E-1,6.633831634E0,6.677045515E0
6.476031625E0,-8.371388483E-1,8.800603348E-1,4.545954062E0,4.705423039E0
6.485992625E0,-6.966330336E-1,1.051711928E0,4.488723854E0,4.662621301E0
6.495954625E0,-2.085569384E0,1.410779355E0,4.845798111E-1,2.564120831E0
6.505915625E0,-2.718116203E0,1.408111271E0,-1.209767284E0,3.291575599E0
6.515876625E0,-3.305411713E0,1.340264712E0,-2.584392720E0,4.404672725E0
6.525838625E0,-3.906353454E0,1.407750351E0,-3.699421077E0,5.561211618E0
6.535799625E0,-3.875062079E0,1.363049411E0,-3.694614666E0,5.524869894E0
6.545760625E0,-4.541701089E0,1.666567997E0,-5.582090616E0,7.386760678E0
6.555721625E0,-4.398376478E0,1.578792373E0,-6.572116612E0,8.064181158E0
6.565683625E0,-4.034828769E0,1.496538859E0,-7.515232151E0,8.660149307E0
6.575644625E0,-3.474234277E0,1.477441414E0,-8.374388689E0,9.186050450E0
6.585605625E0,-3.479420465E0,1.280273887E0,-8.324349387E0,9.112642905E0
6.595567625E0,-2.139225774E0,1.082489771E0,-9.896862727E0,1.018312147E1
6.605528625E0,-1.452556249E0,5.022869343E-1,-1.065192655E1,1.076223727E1
6.615489625E0,-6.709162483E-1,-1.304914346E-1,-1.127061108E1,1.129131661E1
6.625451625E0,-5.543661837E-1,-3.177824298E-1,-1.121537127E1,1.123355955E1
6.635412625E0,9.038424958E-2,-8.258110374E-1,-1.156672812E1,1.159652243E1
6.645373625E0,8.926833040E-1,-1.542051393E0,-1.181641826E1,1.195000194E1
6.655334625E0,1.296430914E0,-1.842369651E0,-1.159135191E1,1.180823857E1
6.665296625E0,1.629315824E0,-2.118086042E0,-1.103829068E1,1.135714839E1
6.675257625E0,2.013973152E0,-2.369010531E0,-1.007112379E1,1.054020081E1
6.685218625E0,2.087851406E0,-2.379813262E0,-1.006659103E1,1.055267215E1
6.695180625E0,2.918482157E0,-2.631361649E0,-7.803523271E0,8.737080615E0
6.705141625E0,3.203695888E0,-2.798617452E0,-6.628329989E0,7.875956159E0
6.715102625E0,3.362686359E0,-2.964189257E0,-5.567152149E0,7.147535278E0
6.725063625E0,3.630765117E0,-3.186270601E0,-4.475606210E0,6.585273466E0
6.735025625E0,3.593732361E0,-3.195960606E0,-4.471728922E0,6.566995967E0
6.744986625E0,4.187818535E0,-3.303473653E0,-2.210071515E0,5.773662474E0
6.754947625E0,4.041198141E0,-3.238111430E0,-1.743376583E-1,5.181413095E0
6.764909625E0,3.438409264E0,-2.900437649E0,2.156813321E0,4.988691264E0
6.774870625E0,2.271934765E0,-1.914380159E0,4.317079423E0,5.240583337E0
6.784831625E0,2.220367439E0,-1.954949018E0,4.335621529E0,5.248759022E0
6.794793625E0,8.593970056E-1,1.637058415E0,8.423486590E0,8.624015874E0
6.804754625E0,1.276858236E0,2.998058669E0,1.025841829E1,1.076354349E1
6.814715625E0,2.163726046E0,4.218884207E0,1.198330013E1,1.288720980E1
6.824676625E0,2.013795689E0,4.243463270E0,1.198085132E1,1.286868882E1
6.834638625E0,3.308320702E0,5.021733813E0,1.351593137E1,1.479334976E1
6.844599625E0,5.712102286E0,5.443806889E0,1.662337214E1,1.840107734E1
6.854560625E0,5.771286049E0,5.423859698E0,1.727282122E1,1.900200909E1
6.864522625E0,5.195818872E0,4.741095236E0,1.672794141E1,1.814658485E1
6.874483625E0,5.076623966E0,4.919285333E0,1.667935105E1,1.811552457E1
6.884444625E0,3.769501126E0,4.129245806E0,1.517293990E1,1.617027875E1
6.894405625E0,6.686798345E-1,3.713074910E0,1.119449671E1,1.181316276E1
6.904367625E0,-3.659314732E-1,3.345996067E0,9.359592487E0,9.946434891E0
6.914328625E0,-1.328775372E0,2.961799500E0,7.442188148E0,8.119363565E0
6.924289625E0,-2.260305822E0,2.620988688E0,5.428393629E0,6.437858456E0
6.934251625E0,-2.194890536E0,2.753841521E0,5.385701938E0,6.434825013E0
6.944212625E0,-3.911618287E0,1.946928685E0,1.480741875E0,4.613446155E0
6.954173625E0,-4.350374931E0,1.407169138E0,-3.157350272E-1,4.583184006E0
6.964135625E0,-4.528360375E0,7.921328294E-1,-1.876727014E0,4.965443221E0
6.974096625E0,-4.507381734E0,1.485568459E-1,-3.230434036E0,5.547455569E0
6.984057625E0,-4.526522595E0,5.005596668E-2,-3.204511575E0,5.546242587E0
6.994018625E0,-3.829973030E0,-1.326404618E0,-5.712441425E0,7.004286520E0
7.003980625E0,-3.605217170E0,-1.910430072E0,-7.012435924E0,8.113050689E0
7.013941625E0,-3.388831599E0,-2.341881790E0,-8.251458582E0,9.222535370E0
7.023902625E0,-3.213546984E0,-2.664714752E0,-9.475423490E0,1.035428603E1
7.033864625E0,-3.262177108E0,-2.901214744E0,-9.385362920E0,1.035103297E1
7.043825625E0,-3.184212381E0,-3.206859232E0,-1.161179378E1,1.246021305E1
7.053786625E0,-3.197515381E0,-3.420524093E0,-1.152279448E1,1.243780054E1
7.063747625E0,-3.261979179E0,-3.680737761E0,-1.308532954E1,1.397906248E1
7.073709625E0,-3.274820834E0,-3.911242896E0,-1.340562364E1,1.434339631E1
7.083670625E0,-3.264138264E0,-4.019124025E0,-1.335645207E1,1.432490029E1
7.093631625E0,-3.007531743E0,-4.036757473E0,-1.293231960E1,1.387751953E1
7.103593625E0,-2.875446942E0,-3.880515485E0,-1.226465645E1,1.318136539E1
7.113554625E0,-2.736588142E0,-3.681948135E0,-1.146604140E1,1.234972721E1
7.123515625E0,-2.489682444E0,-3.479116117E0,-1.082156597E1,1.163653976E1
7.133476625E0,-2.491519055E0,-3.446899713E0,-1.083698157E1,1.164169036E1
7.143438625E0,-1.841694298E0,-3.050227527E0,-9.628213574E0,1.026636364E1
7.153399625E0,-1.853637090E0,-2.983796433E0,-9.657730903E0,1.027671046E1
7.163360625E0,-8.943931760E-1,-3.012075614E0,-7.754877945E0,8.367237932E0
7.173322625E0,-4.634109901E-1,-3.169318938E0,-5.884128540E0,6.699425420E0
7.183283625E0,-2.618590745E-1,-3.016101715E0,-2.733907194E0,4.079177401E0
7.193244625E0,-2.066625282E-1,-2.021012907E0,1.823965833E0,2.730211334E0
7.203205625E0,-2.647404362E-1,-1.794540012E0,1.750987903E0,2.521194160E0
7.213167625E0,1.647846820E0,3.875514069E-1,8.123575298E0,8.298076334E0
7.223128625E0,2.836034662E0,9.810113436E-1,9.243308324E0,9.718241849E0
7.233089625E0,2.816581560E0,9.980103689E-1,9.241640114E0,9.712727134E0
7.243051625E0,3.970231946E0,4.305847507E0,9.128656120E0,1.084598668E1
7.253012625E0,4.038050292E0,4.238807133E0,9.137873086E0,1.085237580E1
7.262973625E0,4.585975329E0,6.966391439E0,8.173645590E0,1.167776784E1
7.272934625E0,4.601326025E0,7.989679322E0,8.309423785E0,1.241183711E1
7.282896625E0,4.233033007E0,8.370189804E0,9.537194061E0,1.337672293E1
7.292857625E0,4.793905826E0,6.652454431E0,1.214180528E1,1.465128385E1
7.302818625E0,4.723330518E0,6.870629250E0,1.208700869E1,1.468370445E1
7.312780625E0,5.545737306E0,2.531674224E0,1.819601354E1,1.919008821E1
7.322741625E0,4.667682567E0,1.117681970E0,1.888472550E1,1.948510535E1
7.332702625E0,3.665392328E0,-2.275192541E-1,1.764818206E1,1.802623632E1
7.342664625E0,2.475667838E0,-7.677981797E-1,1.478071101E1,1.500626080E1
7.352625625E0,2.632796556E0,-6.008101791E-1,1.472524549E1,1.497081980E1
7.362586625E0,-7.311900781E-1,6.029673631E-1,6.375896333E0,6.445949319E0
7.372547625E0,-1.982552115E0,1.404569320E0,2.746888597E0,3.667250309E0
7.382509625E0,-2.667667596E0,2.134837731E0,2.495591640E-2,3.416812160E0
7.392470625E0,-2.842350532E0,2.701417724E0,-1.890215955E0,4.353105860E0
7.402431625E0,-2.816224880E0,2.607737144E0,-1.878842536E0,4.273343523E0
7.412394167E0,-2.232306138E0,2.576073301E0,-3.684565641E0,5.019498810E0
7.422355167E0,-1.382105487E0,1.800799310E0,-4.006232083E0,4.604670372E0
7.432316167E0,-9.510393932E-1,8.472032221E-1,-3.985172752E0,4.183758010E0
7.442277167E0,-8.725916862E-1,-2.268911169E-1,-4.180414791E0,4.276536408E0
7.452239167E0,-1.099527242E0,-3.785345618E-1,-4.109226109E0,4.270595718E0
7.462200167E0,-1.708488586E0,-1.996569791E0,-5.362002588E0,5.971289302E0
7.472161167E0,-2.194457988E0,-2.627845718E0,-6.239450387E0,7.117019047E0
7.482123167E0,-2.665783331E0,-3.058335861E0,-7.232534477E0,8.292730187E0
7.492084167E0,-3.004974171E0,-3.256194529E0,-8.343704841E0,9.447226209E0
7.502045167E0,-3.032926201E0,-3.424182696E0,-8.283419462E0,9.462489443E0
7.512006167E0,-2.997271049E0,-3.561232367E0,-1.020908533E1,1.122013516E1
7.521968167E0,-2.681409722E0,-3.847292483E0,-1.056424638E1,1.155832683E1
7.531929167E0,-2.413279801E0,-3.903134269E0,-1.042952770E1,1.139444709E1
7.541890167E0,-2.328369751E0,-3.894130434E0,-1.045330833E1,1.139549089E1
7.551852167E0,-2.080176497E0,-3.517471513E0,-9.806396361E0,1.062380109E1
7.561813167E0,-1.617874285E0,-2.940279700E0,-7.485033621E0,8.202956188E0
7.571774167E0,-1.319990369E0,-2.772626579E0,-6.251047754E0,6.964584032E0
7.581735167E0,-1.303792266E0,-2.371559040E0,-4.915018035E0,5.610843861E0
7.591697167E0,-1.290297184E0,-1.986648236E0,-3.682811476E0,4.378896939E0
7.601658167E0,-1.249953004E0,-1.941775534E0,-3.704335662E0,4.365200732E0
7.611619167E0,-8.769779751E-1,-1.822361649E0,-1.965584226E0,2.820215187E0
7.621581167E0,-2.031699863E-1,-1.918752999E0,-7.705601120E-1,2.077655891E0
7.631542167E0,2.982708558E-1,-1.803390358E0,4.737712330E-1,1.888290620E0
7.641503167E0,3.605825865E-1,-1.393575677E0,1.404266142E0,2.010978957E0
7.651465167E0,4.325957251E-1,-1.439478367E0,1.406529014E0,2.058533676E0
7.661426167E0,1.015332891E0,-9.347063658E-1,4.041760935E0,4.270879105E0
7.671387167E0,1.564252248E0,-7.005034518E-1,5.418511249E0,5.683120124E0
7.681348167E0,1.655114909E0,1.412415406E-1,6.733775752E0,6.935639150E0
7.691310167E0,1.424344018E0,1.050242085E0,7.403738027E0,7.612299330E0
7.701271167E0,1.553368387E0,9.904268226E-1,7.409573548E0,7.635160693E0
7.711232167E0,9.068234794E-1,1.567738211E0,7.014488297E0,7.244527451E0
7.721194167E0,4.140498919E-1,1.978046689E0,6.583838525E0,6.887019365E0
7.731155167E0,6.946382560E-2,2.526128139E0,6.512303689E0,6.985431120E0
7.741116167E0,3.222947261E-1,2.637050698E0,7.044985619E0,7.529258439E0
7.751077167E0,2.759809774E-1,2.717603694E0,7.020531394E0,7.533219524E0
7.761039167E0,1.039444470E0,1.987986079E0,7.492504608E0,7.821135388E0
7.771000167E0,7.844365049E-1,1.142548570E0,7.694996610E0,7.818806219E0
7.780961167E0,5.394502290E-1,2.392271340E-1,7.881850818E0,7.903910961E0
7.790923167E0,2.625719232E-1,-3.295698318E-1,7.466069346E0,7.477951041E0
7.800884167E0,1.295876013E-1,-1.386176026E-1,7.432884058E0,7.435305859E0
7.810845167E0,2.212393445E-1,-2.578195256E-1,5.167606056E0,5.178761445E0
7.820806167E0,1.016681698E-1,-1.394078538E-1,5.158789040E0,5.161673694E0
7.830768167E0,4.342194968E-1,1.190560642E0,1.586565369E0,2.030559254E0
7.840729167E0,5.230052273E-1,1.871532786E0,-4.026252365E-1,1.984509138E0
7.850690167E0,4.310143456E-1,1.862137187E0,-3.838545048E-1,1.949531367E0
7.860652167E0,3.701867844E-1,2.397582658E0,-3.841124840E0,4.543091557E0
7.870613167E0,3.095179752E-1,2.349933406E0,-3.818704861E0,4.494496101E0
7.880574167E0,-9.837472558E-2,2.284462132E0,-6.368744019E0,6.766782485E0
7.890535167E0,-3.924066424E-1,2.148764483E0,-7.339513380E0,7.657651626E0
7.900497167E0,-3.981760901E-1,2.105103762E0,-7.328111309E0,7.634868788E0
7.910458167E0,-9.699397869E-1,1.967745211E0,-8.758098768E0,9.028681988E0
7.920419167E0,-9.366695684E-1,1.945331810E0,-8.759663483E0,9.021827424E0
7.930381167E0,-8.494814435E-1,1.761529702E0,-9.298570359E0,9.502000649E0
7.940342167E0,-4.996279129E-1,1.553751672E0,-9.465356923E0,9.605037949E0
7.950303167E0,-4.308747433E-1,1.558311038E0,-9.479620621E0,9.616506302E0
7.960264167E0,-5.216030650E-1,1.165511024E0,-9.237807848E0,9.325640973E0
7.970226167E0,-4.606247918E-1,1.175734881E0,-9.251026064E0,9.336809463E0
7.980187167E0,-7.516021232E-1,8.715036656E-1,-8.402930703E0,8.481371870E0
7.990148167E0,-7.367430326E-1,7.129881343E-1,-7.404488810E0,7.475131899E0
8.000110167E0,-7.425539955E-1,7.326339018E-1,-7.408131625E0,7.481213340E0
8.010071167E0,-4.086779818E-2,5.316009267E-1,-4.009301287E0,4.044597203E0
8.020032167E0,-1.046547814E-1,5.366475123E-1,-3.999406044E0,4.036606481E0
8.029993167E0,1.339805121E0,2.112732039E-1,3.377047706E-1,1.397769166E0
8.039955167E0,1.988647107E0,-3.144329984E-1,2.078793338E0,2.893953553E0
8.049916167E0,2.235529854E0,-6.557020855E-1,3.402101271E0,4.123327783E0
8.059877167E0,2.068767994E0,-5.780994473E-1,4.629007328E0,5.103107762E0
8.069839167E0,2.081775272E0,-6.727616295E-1,4.651660611E0,5.140461354E0
8.079800167E0,2.025006263E0,2.130248836E-1,8.014760953E0,8.269366548E0
8.089761167E0,2.615887578E0,5.185515493E-1,9.795522294E0,1.015204514E1
8.099722167E0,2.713681090E0,4.978927517E-1,9.783154263E0,1.016474641E1
8.109684167E0,2.953542062E0,2.941579244E-1,1.188489032E1,1.224992072E1
8.119645167E0,3.064394161E0,3.128216520E-1,1.186147690E1,1.225491751E1
8.129606167E0,3.966699058E0,-1.855494896E0,1.191973622E1,1.269872727E1
8.139568167E0,3.532547974E0,-2.647509905E0,1.194804844E1,1.273750624E1
8.149529167E0,1.887081409E0,-2.812307830E0,1.218165406E1,1.264368804E1
8.159490167E0,-3.208324105E-1,-3.115539464E0,1.170787522E1,1.211956525E1
8.169451167E0,-2.505536292E-1,-2.899471689E0,1.165198987E1,1.200993677E1
8.179413167E0,-3.403137690E0,-4.995536533E0,9.106902139E0,1.093034299E1
8.189374167E0,-4.223205299E0,-5.299043863E0,7.458026501E0,1.007658117E1
8.199335167E0,-4.386109897E0,-5.052608281E0,5.802758687E0,8.856569249E0
8.209297167E0,-4.312156652E0,-4.824058748E0,5.769905521E0,8.669374114E0
8.219258167E0,-4.088722263E0,-4.212025131E0,4.248645950E0,7.246364458E0
8.229219167E0,-2.983689429E0,-1.917020761E0,1.388241262E0,3.808488547E0
8.239180167E0,-2.193151428E0,-5.132956699E-1,2.305557132E-2,2.252535724E0
8.249142167E0,-1.394053102E0,8.711885738E-1,-1.624543034E0,2.311167163E0
8.259103167E0,-5.916179907E-1,1.952751342E0,-3.275095654E0,3.858691642E0
8.269064167E0,-6.139197828E-1,1.822058178E0,-3.263434551E0,3.787716803E0
8.279026167E0,1.029992153E0,2.545842319E0,-7.038332657E0,7.555152119E0
8.288987167E0,1.351020519E0,2.489189524E0,-9.158408507E0,9.586332318E0
8.298948167E0,1.158955930E0,2.213452522E0,-1.087331851E1,1.115668437E1
8.308909167E0,8.761950329E-1,1.544003632E0,-1.200489974E1,1.213545561E1
8.318871167E0,8.887006923E-1,1.368161047E0,-1.197508011E1,1.208570219E1
8.328832167E0,7.537158917E-1,3.563503718E-1,-1.318133381E1,1.320767331E1
8.338793167E0,7.717285319E-1,-1.167911160E-1,-1.322451199E1,1.324752514E1
8.348755167E0,8.308229052E-1,-1.827817686E-1,-1.321496348E1,1.324231610E1
8.358716167E0,7.013141683E-1,-4.407093215E-1,-1.240400847E1,1.243163273E1
8.368677167E0,7.880253797E-1,-4.608279826E-1,-1.240492414E1,1.243846813E1
8.378638167E0,7.675227758E-1,-6.111591661E-1,-1.101087425E1,1.105449947E1
8.388600167E0,9.489531798E-1,-6.474963954E-1,-1.019748095E1,1.026198721E1
8.398561167E0,1.385630042E0,-7.409720314E-1,-9.106732569E0,9.241297975E0
8.408522042E0,1.914167320E0,-9.466380478E-1,-7.787620599E0,8.075097195E0
8.418484042E0,1.919992609E0,-9.333900113E-1,-7.790759969E0,8.077965673E0
8.428445042E0,2.351571503E0,-7.314099334E-1,-4.831039154E0,5.422526010E0
8.438406042E0,2.137451874E0,-2.611423521E-1,-3.680720512E0,4.264340433E0
8.448367042E0,2.126834354E0,-2.156213397E-1,-2.380171697E0,3.199239634E0
8.458329042E0,2.228623415E0,-6.028672296E-1,-4.960017622E-1,2.361404025E0
8.468290042E0,2.187035678E0,-6.251775733E-1,-4.891277754E-1,2.326632338E0
8.478251042E0,1.421719496E0,4.879133087E-1,3.705309808E0,3.998583061E0
8.488213042E0,1.058057327E0,1.515304913E0,6.814345121E0,7.060519366E0
8.498174042E0,1.341438248E0,1.825242280E0,9.722598159E0,9.982979561E0
8.508135042E0,2.071500252E0,1.501891547E0,1.193526175E1,1.220644356E1
8.518096042E0,2.035364167E0,1.559067229E0,1.192545830E1,1.219794875E1
8.528058042E0,3.367599775E0,2.522602853E-1,1.437529782E1,1.476663641E1
8.538019042E0,3.139070999E0,-1.096120508E-1,1.473071965E1,1.506186851E1
8.547980042E0,2.629884058E0,-1.196390024E-1,1.522428196E1,1.545022216E1
8.557942042E0,2.091414845E0,-8.248813301E-3,1.551046925E1,1.565083833E1
8.567903042E0,2.099580190E0,1.692650525E-1,1.548199097E1,1.562462582E1
8.577864042E0,4.019665477E-1,-3.153589050E-1,1.514948555E1,1.515809819E1
8.587825042E0,-5.336111263E-1,-4.446061253E-1,1.360586271E1,1.362357940E1
8.597787042E0,-4.987116542E-1,-3.274494121E-1,1.359103651E1,1.360412474E1
8.607748042E0,-1.769126697E0,-4.478323996E-2,8.912181671E0,9.086187151E0
8.617709042E0,-1.724900112E0,-1.269576699E-3,8.905770784E0,9.071275283E0
8.627671042E0,-2.155483664E0,5.264567656E-1,6.555151500E0,6.920496929E0
8.637632042E0,-2.366162060E0,1.266285301E0,1.791688617E0,3.226817234E0
8.647593042E0,-2.378534769E0,1.351470316E0,-4.275185877E-1,2.768875548E0
8.657554042E0,-2.318310786E0,1.240579625E0,-2.360181820E0,3.533279062E0
8.667516042E0,-2.304435782E0,1.158609994E0,-2.352016768E0,3.490671034E0
8.677477042E0,-1.917171035E0,6.321552750E-1,-5.199346497E0,5.577487702E0
8.687438042E0,-1.914394777E0,5.409332290E-1,-5.188081836E0,5.556411545E0
8.697400042E0,-1.551209595E0,2.655548072E-1,-7.257269953E0,7.425950291E0
8.707361042E0,-1.361330768E0,6.846139356E-2,-8.012719105E0,8.127827255E0
8.717322042E0,-1.358072407E0,-4.245677903E-2,-7.995502564E0,8.110130978E0
8.727283042E0,-1.055974476E0,-4.468377882E-1,-9.342129777E0,9.412233256E0
8.737245042E0,-1.045958999E0,-5.689829072E-1,-9.320380474E0,9.396130265E0
8.747206042E0,-9.523728508E-1,-7.203836927E-1,-1.059783746E1,1.066490158E1
8.757167042E0,-9.269359278E-1,-8.899431525E-1,-1.123373854E1,1.130699300E1
8.767128042E0,-8.951767760E-1,-1.015336985E0,-1.120687877E1,1.128832948E1
8.777090042E0,-8.250818165E-1,-1.259612605E0,-1.206489335E1,1.215849643E1
8.787051042E0,-7.902113613E-1,-1.359897031E0,-1.204093730E1,1.214322548E1
8.797012042E0,-3.523413015E-1,-1.672749234E0,-1.153226463E1,1.165827439E1
8.806974042E0,-2.960606631E-1,-1.510714118E0,-1.042777237E1,1.054079435E1
8.816935042E0,-3.110810455E-1,-1.549151959E0,-1.041706495E1,1.053621779E1
8.826896042E0,-1.500117611E-1,-1.174688668E0,-8.976789896E0,9.054565358E0
8.836857042E0,8.764711311E-2,-7.476162225E-1,-7.296436942E0,7.335162172E0
8.846819042E0,5.231418329E-1,-4.442217439E-1,-3.227447278E0,3.299610017E0
8.856780042E0,4.847680184E-1,-8.286033753E-1,-6.857526809E-1,1.179762826E0
8.866741042E0,3.390973581E-1,-9.130851164E-1,-6.515429610E-1,1.171844562E0
8.876703042E0,1.654893592E-2,-7.285756418E-1,1.852241213E0,1.990450664E0
8.886664042E0,-2.024505595E-1,7.569074482E-2,4.472258679E0,4.477478421E0
8.896625042E0,1.731429552E0,9.608340642E-1,8.771250910E0,8.991990487E0
8.906586042E0,3.212205341E0,5.038811776E-1,9.626873392E0,1.016114416E1
8.916548042E0,4.361384946E0,-2.462730289E-2,1.010498735E1,1.100604627E1
8.926509042E0,4.803287099E0,-1.331118643E-1,1.053843443E1,1.158222284E1
8.936470042E0,4.761153817E0,-6.226553768E-2,1.052095009E1,1.154828357E1
8.946432042E0,4.915498091E0,2.572225249E-1,1.260457381E1,1.353157662E1
8.956393042E0,4.424254208E0,2.362605491E-1,1.331077245E1,1.402877427E1
8.966354042E0,3.462505347E0,-4.192161262E-2,1.370670146E1,1.413733941E1
8.976315042E0,2.468402380E0,-6.829448479E-1,1.264706787E1,1.290378819E1
8.986277042E0,2.538151769E0,-4.125418219E-1,1.257232759E1,1.283260792E1
8.996238042E0,-2.334892613E-1,-1.160592054E0,7.460671781E0,7.554013144E0
9.006199042E0,-1.667494780E0,-7.004167669E-1,4.540121464E0,4.887108081E0
9.016161042E0,-2.582161422E0,-8.038605899E-3,1.940679181E0,3.230148280E0
9.026122042E0,-2.464678581E0,1.280326805E-1,1.906937823E0,3.118885175E0
9.036083042E0,-2.928865350E0,7.096576334E-1,-4.201996279E-1,3.042767478E0
9.046044042E0,-2.978706724E0,1.293824517E0,-4.038505790E0,5.182297236E0
9.056006042E0,-2.902452015E0,1.469730983E0,-5.411387002E0,6.314067322E0
9.065967042E0,-2.749907514E0,1.689953351E0,-6.703761410E0,7.440319261E0
9.075928042E0,-2.463234318E0,1.820056384E0,-7.807960723E0,8.387155609E0
9.085889042E0,-2.582114645E0,1.813495516E0,-7.789224490E0,8.404052604E0
9.095851042E0,-2.471954856E0,2.189062470E0,-8.981845399E0,9.569540327E0
9.105812042E0,-2.642626310E0,2.346433847E0,-9.152911540E0,9.811473654E0
9.115773042E0,-2.657377666E0,2.266738052E0,-9.226721528E0,9.865705631E0
9.125735042E0,-2.583533472E0,2.020302617E0,-9.437516575E0,9.991145428E0
9.135696042E0,-2.528066784E0,2.038302831E0,-9.448956068E0,9.991424867E0
9.145657042E0,-2.484881296E0,1.549954051E0,-1.016558088E1,1.057903716E1
9.155618042E0,-2.266815381E0,1.354865063E0,-1.042301156E1,1.075236167E1
9.165580042E0,-1.796400742E0,1.090641448E0,-1.052655172E1,1.073428365E1
9.175541042E0,-1.291796410E0,9.125677110E-1,-1.038155597E1,1.050134383E1
9.185502042E0,-1.232953540E0,8.874245375E-1,-1.038633666E1,1.049684171E1
9.195464042E0,-3.980360493E-1,8.424924128E-1,-8.518303869E0,8.569114713E0
9.205425042E0,-9.928601414E-2,8.366356954E-1,-6.956895561E0,7.007725226E0
9.215386042E0,5.287553792E-1,5.917425364E-1,-5.027433094E0,5.089678280E0
9.225347042E0,4.704451905E-1,5.433473251E-1,-5.014041801E0,5.065289743E0
9.235309042E0,1.368383972E0,2.455965060E-1,-2.740639093E0,3.073092087E0
9.245270042E0,3.042526159E0,-2.095839433E-1,2.440112674E0,3.905770183E0
9.255231042E0,3.221492473E0,-4.382444277E-2,4.873536717E0,5.842199455E0
9.265193042E0,3.799676267E0,2.361728409E-1,7.222149822E0,8.164114489E0
9.275154042E0,4.565038204E0,6.282343514E-1,9.438959668E0,1.050372371E1
9.285115042E0,4.581513319E0,5.565550889E-1,9.448469580E0,1.051539801E1
9.295076042E0,4.811603594E0,2.314438175E0,1.305800667E1,1.410743391E1
9.305038042E0,5.468683868E0,2.332238123E0,1.438506267E1,1.556521333E1
9.314999042E0,5.925689964E0,2.346343800E0,1.482859269E1,1.614020731E1
9.324960042E0,5.734963145E0,3.057968948E0,1.522035263E1,1.654992781E1
9.334922042E0,5.703976411E0,3.108730089E0,1.521573918E1,1.654443315E1
9.344883042E0,3.988126473E0,4.181394199E0,1.534347511E1,1.639547007E1
9.354844042E0,2.532053123E0,4.094023641E0,1.403084887E1,1.483364563E1
9.364805042E0,1.160856787E0,3.516980347E0,1.290892606E1,1.342971002E1
9.374767042E0,3.289643526E-1,2.855690662E0,1.257976407E1,1.290401685E1
9.384728042E0,2.428931920E-1,3.051878196E0,1.257245389E1,1.293984367E1
9.394689042E0,2.925166109E-1,1.881794795E0,1.035685500E1,1.053048731E1
9.404650042E0,4.760890692E-2,1.769042790E0,7.517354690E0,7.722849250E0
9.414611875E0,-2.399084808E-1,1.818274299E0,4.247919141E0,4.626931438E0
9.424572875E0,-3.378385256E-1,1.890995097E0,4.265830332E0,4.678387088E0
9.434533875E0,-9.364655006E-1,1.951056380E0,8.068812615E-1,2.309685261E0
9.444495875E0,-2.954023580E0,2.405419681E0,-5.317567257E0,6.541316434E0
9.454456875E0,-2.993180337E0,2.347091951E0,-5.305388677E0,6.528025595E0
9.464417875E0,-4.828828322E0,2.367656316E0,-1.024333715E1,1.156932735E1
9.474378875E0,-5.596120425E0,2.253910430E0,-1.216713191E1,1.358071335E1
9.484340875E0,-5.559316295E0,2.168544005E0,-1.216985438E1,1.355411142E1
9.494301875E0,-5.212424380E0,1.107943578E0,-1.458569233E1,1.552866149E1
9.504262875E0,-5.141045079E0,1.062778588E0,-1.459822876E1,1.551348207E1
9.514224875E0,-4.414070990E0,-9.093933307E-2,-1.507695200E1,1.571008512E1
9.524185875E0,-4.125879564E0,-3.405107763E-1,-1.438818041E1,1.497192590E1
9.534146875E0,-4.009788945E0,-3.172927254E-1,-1.441344622E1,1.496417436E1
9.544107875E0,-2.901838935E0,-8.995568521E-1,-1.253955628E1,1.290233868E1
9.554069875E0,-2.777868607E0,-8.414153557E-1,-1.256570386E1,1.289656727E1
9.564030875E0,-2.481446641E0,-1.070799068E0,-9.697087342E0,1.006666236E1
9.573991875E0,-2.301582925E0,-1.308405865E0,-7.914269536E0,8.345350331E0
9.583952875E0,-2.246618660E0,-1.530012999E0,-6.040361465E0,6.623760398E0
9.593914875E0,-2.331108002E0,-1.736751249E0,-4.374398509E0,5.252212080E0
9.603875875E0,-2.358056065E0,-1.666769726E0,-4.373124400E0,5.240492987E0
9.613836875E0,-1.942919249E0,-2.187792454E0,-1.129649320E0,3.136475509E0
9.623798875E0,-1.261342503E0,-2.105346567E0,-2.126392597E-1,2.463470019E0
9.633759875E0,-1.255195910E0,-2.115949470E0,-2.132824534E-1,2.469463168E0
9.643720875E0,2.042853427E-1,-1.922517290E0,4.663616413E-1,1.988793205E0
9.653681875E0,2.955622794E-1,-1.979430141E0,4.554250091E-1,2.052538107E0
9.663643875E0,1.086195298E0,-1.353575752E0,1.710900562E0,2.437040885E0
9.673604875E0,8.381792872E-1,-9.090405974E-1,2.634281749E0,2.910041178E0
9.683565875E0,5.200053864E-1,-7.110221542E-1,3.696323807E0,3.799837864E0
9.693527875E0,6.101920366E-2,-2.783657643E-1,4.724280691E0,4.732867934E0
9.703488875E0,2.301953054E-1,-3.463708558E-1,4.717761630E0,4.736057162E0
9.713449875E0,-3.990984153E-2,1.656793937E0,8.403272181E0,8.565135275E0
9.723410875E0,6.483521354E-1,2.897614614E0,1.029566155E1,1.071527777E1
9.733372875E0,1.928107082E0,3.226080491E0,1.249871582E1,1.305155506E1
9.743333875E0,3.421037186E0,2.988039465E0,1.480935886E1,1.549028680E1
9.753294875E0,3.317012588E0,2.951703697E0,1.481689592E1,1.546788712E1
9.763255875E0,5.727642431E0,1.594440984E0,1.790292302E1,1.886432566E1
9.773217875E0,6.003061491E0,-8.560908437E-2,1.789052927E1,1.887101252E1
9.783178875E0,5.037761031E0,-1.797790041E0,1.750091058E1,1.830008077E1
9.793139875E0,2.914829109E0,-2.897316698E0,1.669008069E1,1.718864352E1
9.803101875E0,2.878142216E0,-2.724785829E0,1.668089705E1,1.714527594E1
9.813062875E0,-1.242364049E0,-3.388936557E0,1.367365299E1,1.414203470E1
9.823023875E0,-2.340480504E0,-3.023861555E0,1.114831774E1,1.178586340E1
9.832984875E0,-2.783942987E0,-2.021623941E0,8.115948189E0,8.815095968E0
9.842946875E0,-2.807358747E0,-6.805151106E-1,4.696474841E0,5.513731938E0
9.852907875E0,-2.766720891E0,-6.451973433E-1,4.693400960E0,5.486258896E0
9.862868875E0,-1.607388473E0,1.310064720E0,-2.490307512E0,3.240617036E0
9.872829875E0,-9.739418406E-1,1.708586819E0,-5.557358063E0,5.895087808E0
9.882791875E0,-7.930559586E-1,2.009528683E0,-8.188713865E0,8.468894735E0
9.892752875E0,-9.635073381E-1,2.347751956E0,-1.038877612E1,1.069424868E1
9.902713875E0,-1.056484864E0,2.181153087E0,-1.037116196E1,1.065056757E1
9.912675875E0,-1.368335879E0,2.521465570E0,-1.431573223E1,1.460035346E1
9.922636875E0,-1.540698932E0,2.410161773E0,-1.549196164E1,1.575384107E1
9.932597875E0,-1.693674811E0,2.260579472E0,-1.606436079E1,1.631080750E1
9.942558875E0,-1.851839802E0,2.061206375E0,-1.619509400E1,1.643042763E1
9.952520875E0,-1.796652173E0,2.041636037E0,-1.619950047E1,1.642620017E1
9.962481875E0,-2.218724810E0,1.730878744E0,-1.550538451E1,1.575866840E1
9.972442875E0,-2.188235673E0,1.422188150E0,-1.468921378E1,1.491924917E1
9.982404875E0,-2.124730964E0,9.845451815E-1,-1.366248013E1,1.386171614E1
9.992365875E0,-1.957048315E0,5.316611530E-1,-1.264788764E1,1.280944041E1
1.000232687E1,-1.986099329E0,5.571963092E-1,-1.264707371E1,1.281419259E1
1.001228787E1,-1.564513180E0,-3.970783485E-1,-1.094604851E1,1.106441823E1
1.002224988E1,-1.235281609E0,-8.667956337E-1,-1.016871732E1,1.028008110E1
1.003221088E1,-8.323681051E-1,-1.314881218E0,-8.951790710E0,9.086050088E0
1.004217187E1,-2.546157631E-1,-1.764678867E0,-7.296300117E0,7.510986359E0
1.005213287E1,-2.767980527E-1,-1.740606757E0,-7.295488524E0,7.505363539E0
1.006209488E1,9.694403616E-1,-2.324353299E0,-2.652021616E0,3.657273783E0
1.007205588E1,1.242465791E0,-2.568459057E0,1.918149859E-1,2.859632172E0
1.008201688E1,1.542317441E0,-3.161348890E0,3.323399502E0,4.839199742E0
1.009197887E1,1.436222345E0,-3.598116896E0,5.821249337E0,6.992576325E0
1.010193987E1,1.407220740E0,-3.656286752E0,5.829513207E0,7.023669073E0
1.011190087E1,7.570409109E-1,-2.731334419E0,7.746929825E0,8.249134522E0
1.012186187E1,1.471427845E0,-2.199158857E0,8.343279748E0,8.752811922E0
1.013182388E1,1.987242167E0,-1.179839114E0,8.518764045E0,8.826692054E0
1.014178488E1,2.432955974E0,-7.589912497E-2,8.975750261E0,9.299953129E0
1.015174587E1,3.185687633E0,6.140022285E-1,9.844882150E0,1.036567938E1
1.016170687E1,5.134959297E0,2.836403914E-2,1.226095984E1,1.329284574E1
1.017166888E1,7.345544783E0,-1.168066404E0,1.589272513E1,1.754708293E1
1.018162988E1,8.556703704E0,-2.423751141E0,1.907507692E1,2.104638467E1
1.019159088E1,8.548349787E0,-4.906694523E0,1.805565697E1,2.057077257E1
1.020155287E1,6.746789900E0,-7.542601798E0,1.315696963E1,1.659867060E1
1.021151387E1,6.637818850E0,-7.268874922E0,1.317608768E1,1.644708085E1
1.022147487E1,1.033261478E-2,-4.885829026E0,5.308585349E0,7.214742577E0
1.023143588E1,-2.135330943E0,-3.385681704E0,2.720242835E0,4.839648740E0
1.024139788E1,-3.773560263E0,-1.370993000E0,1.580449766E-1,4.018004116E0
1.025135887E1,-4.947568899E0,9.733813119E-1,-2.093090950E0,5.459573144E0
1.026131987E1,-5.171885049E0,2.420407557E0,-3.515551288E0,6.705659442E0
1.027128087E1,-4.619891811E0,2.926342569E0,-4.739087010E0,7.236423624E0
1.028124288E1,-4.514596906E0,3.279719924E0,-5.451132866E0,7.800833130E0
1.029120388E1,-5.474454485E0,4.089158173E0,-5.451812312E0,8.741460059E0
1.030116488E1,-6.715824215E0,4.594834446E0,-5.278171642E0,9.699169777E0
1.031112687E1,-7.222390727E0,4.552528671E0,-6.171504571E0,1.053451061E1
1.032108787E1,-6.987143208E0,3.944340475E0,-7.537556235E0,1.100875770E1
1.033104887E1,-6.648190641E0,3.403191484E0,-9.014610271E0,1.170655156E1
1.034100988E1,-6.530791415E0,3.018456681E0,-9.981737401E0,1.230436503E1
1.035097188E1,-6.326100276E0,3.137011902E0,-9.907699957E0,1.216646649E1
1.036093287E1,-5.440713712E0,3.094878035E0,-1.017957210E1,1.195003447E1
1.037089387E1,-3.873811652E0,2.369302307E0,-1.057873344E1,1.151215060E1
1.038085487E1,-2.360713040E0,1.963723058E0,-1.056535384E1,1.100253953E1
1.039081688E1,-1.278841904E0,1.745346217E0,-1.027093601E1,1.049637064E1
1.040077788E1,-6.036808696E-1,1.369637469E0,-9.432114918E0,9.550137654E0
1.041073838E1,-6.031768396E-1,9.382443698E-1,-8.369068308E0,8.443069888E0
1.042070037E1,-8.544340351E-1,3.325141972E-1,-7.317672860E0,7.374887070E0
1.043066137E1,-9.552061191E-1,-4.155860285E-1,-6.275164011E0,6.361038739E0
1.044062237E1,-1.220098729E0,-1.010140125E0,-5.363645071E0,5.592648069E0
1.045058338E1,-1.575051324E0,-1.193588184E0,-4.766222184E0,5.159681515E0
1.046054538E1,-1.312708100E0,-1.339474461E0,-4.509552221E0,4.883999961E0
1.047050637E1,-1.326669497E0,-1.402271656E0,-4.511935546E0,4.907543186E0
1.048046737E1,4.434659913E-1,-2.146549996E0,-3.129322228E0,3.820601599E0
1.049042837E1,1.580456490E0,-2.361781326E0,-1.526464178E0,3.225824954E0
1.050039038E1,2.842222478E0,-2.626778894E0,6.352210432E-1,3.921951268E0
1.051035138E1,4.262410588E0,-3.067783207E0,2.945089912E0,6.021045791E0
1.052031238E1,4.209810498E0,-3.013946431E0,2.980776638E0,5.974228560E0
1.053027437E1,6.244595937E0,-4.528060412E0,8.197656012E0,1.125610384E1
1.054023537E1,6.844538974E0,-5.484139813E0,1.047506465E1,1.366200873E1
1.055019637E1,7.414034389E0,-6.373866180E0,1.224002798E1,1.566564269E1
1.056015738E1,7.970855380E0,-6.938955134E0,1.311865633E1,1.684585343E1
1.057011938E1,7.993549594E0,-6.830079979E0,1.312798966E1,1.681936206E1
1.058008037E1,9.126248236E0,-7.208362672E0,1.389361940E1,1.811854186E1
1.059004137E1,9.509729104E0,-6.911770844E0,1.377671952E1,1.811092280E1
1.060000237E1,9.567727636E0,-6.854460529E0,1.375878728E1,1.810605613E1
1.060996438E1,9.036872960E0,-6.017031074E0,1.251508451E1,1.656795329E1
1.061992538E1,7.947749523E0,-5.163943360E0,1.096813462E1,1.449596532E1
1.062988638E1,6.788702742E0,-3.964008462E0,9.172611394E0,1.208042416E1
1.063984737E1,5.850174344E0,-2.744667240E0,7.487342101E0,9.890299786E0
1.064980937E1,5.539605331E0,-1.866529616E0,6.377480344E0,8.651208908E0
1.065977038E1,5.504142553E0,-1.225531816E0,5.884798046E0,8.150359595E0
1.066973138E1,5.449079908E0,-1.230694907E0,5.913261707E0,8.134724692E0
1.067969337E1,4.416977348E0,-4.101159583E-1,5.380281569E0,6.973185338E0
1.068965437E1,3.238465771E0,4.595531434E-2,4.322455938E0,5.401240392E0
1.069961537E1,1.717096272E0,4.477153091E-1,2.696739367E0,3.228199470E0
1.070957637E1,-2.115589866E-1,8.172227933E-1,7.242115724E-1,1.112246690E0
1.071953838E1,-2.160495313E0,1.323952588E0,-1.127693426E0,2.773496514E0
1.072949938E1,-3.381580175E0,1.711966656E0,-2.810667686E0,4.718661585E0
1.073946038E1,-3.756072118E0,1.631071305E0,-4.143108385E0,5.825274109E0
1.074942137E1,-3.791845091E0,1.350335225E0,-4.718577316E0,6.202134012E0
1.075938337E1,-3.889419333E0,1.224070158E0,-4.920751230E0,6.390596464E0
1.076934438E1,-3.913893146E0,1.050374963E0,-5.074828870E0,6.494284809E0
1.077930538E1,-3.935185490E0,6.763092814E-1,-5.101203906E0,6.478067642E0
1.078926737E1,-4.443374019E0,3.738718459E-1,-5.055218478E0,6.740814987E0
1.079922837E1,-5.208264670E0,3.523042448E-1,-5.189664677E0,7.360893874E0
1.080918937E1,-5.811223701E0,3.353271465E-1,-5.755488626E0,8.185866755E0
1.081915037E1,-6.132179123E0,2.959522887E-1,-6.667659531E0,9.063602604E0
1.082911238E1,-6.334124994E0,4.644320601E-1,-7.537487238E0,9.856497879E0
1.083907338E1,-6.392400100E0,8.130034424E-1,-8.080279589E0,1.033511838E1
1.084903437E1,-6.348291044E0,8.363626304E-1,-8.100601003E0,1.032569795E1
1.085899537E1,-6.482913828E0,1.923839200E0,-8.883877054E0,1.116479290E1
1.086895738E1,-6.224991977E0,2.128781038E0,-9.198390014E0,1.130896161E1
1.087891838E1,-6.215279751E0,2.132489489E0,-9.203137368E0,1.130818072E1
1.088887938E1,-5.382492401E0,1.644251513E0,-9.146430486E0,1.073927270E1
1.089884137E1,-4.828509648E0,1.433309116E0,-8.758672965E0,1.010362472E1
1.090880237E1,-4.275708033E0,1.136806896E0,-8.002833803E0,9.144362087E0
1.091876337E1,-3.825154340E0,9.463493416E-1,-7.100296771E0,8.120443155E0
1.092872438E1,-3.307634239E0,7.120628124E-1,-6.162827303E0,7.030499135E0
1.093868638E1,-2.894005712E0,3.480207208E-1,-4.942518075E0,5.738019903E0
1.094864737E1,-2.950391582E0,2.103108984E-1,-3.460826027E0,4.552620998E0
1.095860837E1,-3.272940955E0,3.376202783E-1,-1.782090413E0,3.741921456E0
1.096856937E1,-3.303037158E0,3.798716739E-1,-1.748661296E0,3.756617266E0
1.097853138E1,-3.207894773E0,1.495454639E-2,2.969671606E0,4.371471373E0
1.098849238E1,-2.580673306E0,-3.627165279E-1,5.853508426E0,6.407417489E0
1.099845338E1,-1.298587659E0,-7.766254288E-1,8.649630579E0,8.780978654E0
1.100841537E1,5.920773625E-1,-1.240100884E0,1.086741165E1,1.095395096E1
1.101837637E1,2.887543954E0,-1.951483373E0,1.234196483E1,1.282459720E1
1.102833737E1,2.830092722E0,-2.025566134E0,1.235715239E1,1.283789539E1
1.103829838E1,6.467571904E0,-3.259830620E0,1.280921817E1,1.471502811E1
1.104826038E1,7.538515763E0,-3.568400177E0,1.242901935E1,1.496807341E1
1.105822137E1,8.032265178E0,-3.682765575E0,1.215415343E1,1.502675919E1
1.106818237E1,8.058215121E0,-3.753640846E0,1.211511976E1,1.502666887E1
1.107814337E1,8.685728949E0,-3.868627803E0,1.236046659E1,1.559452798E1
1.108810538E1,8.755107332E0,-3.887926539E0,1.230720898E1,1.559600173E1
1.109806638E1,8.664772528E0,-3.494453949E0,1.213350107E1,1.531376307E1
1.110802738E1,7.101653325E0,-2.105814199E0,1.015178379E1,1.256688694E1
1.111798837E1,5.743111825E0,-1.153704911E0,8.368311678E0,1.021484257E1
1.112795037E1,4.382946553E0,-2.049399385E-1,6.379622764E0,7.742855254E0
1.113791138E1,4.507977566E0,-2.014378949E-1,6.305730330E0,7.754010185E0
1.114787238E1,2.235163087E0,7.136902387E-1,2.955836509E0,3.773894176E0
1.115783437E1,1.203299094E0,1.006052191E0,1.623643733E0,2.257496111E0
1.116779537E1,9.670271426E-2,1.146785462E0,6.528299332E-1,1.323123287E0
1.117775637E1,-9.879894108E-1,1.166084928E0,2.775263965E-2,1.528609612E0
1.118771737E1,-1.930912284E0,1.086125424E0,-1.813531476E-1,2.222831449E0
1.119767938E1,-2.536398481E0,8.655636254E-1,-2.037403822E-1,2.687755158E0
1.120764038E1,-2.790927194E0,5.124740995E-1,-3.528075439E-1,2.859436565E0
1.121760138E1,-2.724007857E0,5.672784439E-1,-3.699217594E-1,2.806931732E0
1.122756237E1,-2.780560081E0,2.829552439E-1,-9.090566772E-1,2.939041013E0
1.123752437E1,-2.818164402E0,2.781347993E-1,-1.953161232E0,3.440094237E0
1.124748538E1,-2.603182747E0,3.298256475E-1,-4.299920184E0,5.037326569E0
1.125744638E1,-2.308121721E0,5.233848578E-1,-5.454117284E0,5.945481725E0
1.126740738E1,-2.206121429E0,5.123119855E-1,-5.501501366E0,5.949449774E0
1.127736937E1,-1.806960083E0,1.023548668E0,-7.209673617E0,7.502809493E0
1.128733037E1,-1.711993407E0,1.002002555E0,-7.254378505E0,7.520700635E0
1.129729137E1,-1.945068685E0,1.570329113E0,-8.420130873E0,8.783383723E0
1.130725338E1,-2.004529606E0,1.771544960E0,-8.769492652E0,9.168451989E0
1.131721438E1,-1.921728355E0,1.738041291E0,-8.809347274E0,9.182506564E0
1.132717537E1,-1.933478335E0,1.832143018E0,-9.046672894E0,9.430661533E0
1.133713637E1,-1.844544523E0,1.785866983E0,-9.089800202E0,9.445429217E0
1.134709838E1,-1.521560411E0,1.756300976E0,-9.685888170E0,9.960731341E0
1.135705938E1,-1.169834017E0,1.464212235E0,-1.003471785E1,1.020823156E1
1.136702038E1,-9.372107282E-1,1.306368403E0,-1.035120425E1,1.047532299E1
1.137698138E1,-6.965475181E-1,1.191133962E0,-1.047938691E1,1.056984052E1
1.138694337E1,-6.405154046E-1,1.115327296E0,-1.051255582E1,1.059094164E1
1.139690437E1,7.851348817E-2,4.700348622E-1,-9.903169534E0,9.914628786E0
1.140686538E1,3.057649398E-1,1.678017868E-1,-9.424488979E0,9.430940682E0
1.141682675E1,4.220037863E-1,-1.060196677E-1,-8.872608885E0,8.883271683E0
1.142678875E1,4.265494117E-1,-1.665224160E-1,-8.885371018E0,8.897162033E0
1.143674975E1,2.999387741E-1,-2.781345069E-1,-8.303545579E0,8.313614812E0
1.144671075E1,2.781157959E-1,-4.368535213E-1,-6.980538193E0,6.999721627E0
1.145667275E1,3.586743477E-1,-3.691186443E-1,-6.111651887E0,6.133284981E0
1.146663375E1,4.499812514E-1,-1.477510996E-1,-4.979987617E0,5.002458414E0
1.147659475E1,7.400388157E-1,-9.666748479E-2,-3.116886370E0,3.204993400E0
1.148655575E1,6.565320978E-1,-7.302266032E-2,-3.088149644E0,3.158011230E0
1.149651775E1,2.127472870E0,-7.116251484E-1,4.061556099E0,4.639912619E0
1.150647875E1,3.152656420E0,-1.017756709E0,8.502160292E0,9.124790455E0
1.151643975E1,4.223376915E0,-1.549126378E0,1.196906333E1,1.278652346E1
1.152640075E1,4.919130381E0,-2.116905928E0,1.423272399E1,1.520689208E1
1.153636275E1,4.755189365E0,-2.125068349E0,1.429736496E1,1.521651689E1
1.154632375E1,6.346836841E0,-2.419980125E0,1.598376861E1,1.736719611E1
1.155628475E1,7.174894964E0,-2.462594048E0,1.598596717E1,1.769448031E1
1.156624575E1,7.846378684E0,-2.377087290E0,1.591914051E1,1.790629043E1
1.157620775E1,8.436686679E0,-2.510559635E0,1.579357740E1,1.808086499E1
1.158616875E1,8.486162310E0,-2.475991189E0,1.577971716E1,1.808714894E1
1.159612975E1,7.588122956E0,-2.257973076E0,1.458082979E1,1.659152343E1
1.160609175E1,6.193946185E0,-1.892340395E0,1.307442916E1,1.459063465E1
1.161605275E1,4.442390225E0,-1.384325674E0,1.138571937E1,1.229982902E1
1.162601375E1,4.463508613E0,-1.342882803E0,1.138599419E1,1.230313403E1
1.163597475E1,2.362034803E0,-6.786234632E-1,9.502697242E0,9.815344777E0
1.164593675E1,-1.940028386E0,4.486328834E-1,5.545853666E0,5.892493062E0
1.165589775E1,-3.438679698E0,8.814082642E-1,4.044400368E0,5.381317026E0
1.166585875E1,-4.721461748E0,1.250961941E0,2.808154553E0,5.634078346E0
1.167581975E1,-5.654574455E0,1.488858834E0,1.669634423E0,6.081002549E0
1.168578175E1,-5.591875931E0,1.597336232E0,1.676470402E0,6.052364206E0
1.169574275E1,-5.846571289E0,1.621026227E0,-8.403314281E-1,6.125053369E0
1.170570375E1,-5.584331853E0,1.578698232E0,-1.803752008E0,6.077052877E0
1.171566475E1,-5.121541107E0,1.744355699E0,-2.395042335E0,5.916856252E0
1.172562675E1,-4.379574172E0,1.825960025E0,-2.895766894E0,5.558800756E0
1.173558775E1,-4.362307344E0,1.892560396E0,-2.880183479E0,5.559403483E0
1.174554875E1,-2.216799322E0,1.826831845E0,-4.260403531E0,5.138341374E0
1.175550975E1,-1.335910144E0,2.129650373E0,-5.235203378E0,5.807531406E0
1.176547175E1,-8.313120979E-1,2.454424611E0,-6.151058612E0,6.674638719E0
1.177543275E1,-5.283555758E-1,2.687558069E0,-6.951772231E0,7.471898363E0
1.178539375E1,-4.676959759E-1,2.664654818E0,-6.978962953E0,7.484988225E0
1.179535575E1,-2.208999136E-1,2.803468887E0,-8.362107782E0,8.822305885E0
1.180531675E1,-1.420642439E-1,2.668509595E0,-9.013889894E0,9.401666700E0
1.181527775E1,-3.044361600E-1,2.622047327E0,-9.634561311E0,9.989623878E0
1.182523875E1,-2.176991478E-1,2.575066996E0,-9.673980900E0,1.001320475E1
1.183520075E1,-4.944496188E-1,2.635730396E0,-1.025415450E1,1.059902069E1
1.184516175E1,-8.244100446E-1,2.724057559E0,-1.099322385E1,1.135566432E1
1.185512275E1,-6.807654445E-1,2.583791334E0,-1.130118149E1,1.161275688E1
1.186508375E1,-3.822145070E-1,2.309978504E0,-1.142471328E1,1.166216799E1
1.187504575E1,-1.444130704E-1,2.000601154E0,-1.128992911E1,1.146672401E1
1.188500675E1,-1.007628746E-1,1.978734030E0,-1.130587915E1,1.147817254E1
1.189496775E1,3.190755415E-1,9.766341180E-1,-1.023103695E1,1.028249680E1
1.190492875E1,4.225759363E-1,5.865596375E-1,-9.414346399E0,9.442062314E0
1.191489075E1,3.333851400E-1,2.698384774E-1,-8.436022435E0,8.446918550E0
1.192485175E1,3.025583267E-2,3.490115315E-2,-7.330516854E0,7.330662375E0
1.193481275E1,9.487838298E-3,4.603571355E-2,-7.322818995E0,7.322969844E0
1.194477475E1,-1.035546277E-1,-6.122555190E-1,-4.031573331E0,4.079113128E0
1.195473575E1,-1.918861757E-1,-8.752264416E-1,-1.197510935E0,1.495618290E0
1.196469675E1,-3.514581527E-1,-1.089343000E0,3.248335286E0,3.444107016E0
1.197465775E1,-3.818708369E-1,-9.441987357E-1,8.183429151E0,8.246565907E0
1.198461975E1,-7.036238185E-1,-1.084427831E0,8.239716203E0,8.340503181E0
1.199458075E1,2.166913509E0,-9.950803292E-1,1.297187251E1,1.318920678E1
1.200454175E1,1.738668697E0,-1.316289812E0,1.306558116E1,1.324632019E1
1.201450275E1,5.754178850E0,-4.707613787E-1,1.061645968E1,1.208475927E1
1.202446475E1,5.482612520E0,-7.603209796E-1,1.070167700E1,1.204836166E1
1.203442575E1,6.809281433E0,1.620599672E-1,9.786387774E0,1.192333690E1
1.204438675E1,6.325282835E0,9.663925005E-1,1.024362484E1,1.207787097E1
1.205434775E1,6.408571744E0,9.445660870E-1,1.019944327E1,1.208265865E1
1.206430975E1,5.075532290E0,-3.267535204E-1,1.320227386E1,1.414806810E1
1.207427075E1,5.049121587E0,-1.435143533E0,1.433795399E1,1.526860146E1
1.208423175E1,4.562741710E0,-2.003593467E0,1.446511222E1,1.529942712E1
1.209419275E1,3.714227104E0,-1.945743746E0,1.326595120E1,1.391283088E1
1.210415475E1,3.665827653E0,-2.026003213E0,1.328065929E1,1.392547639E1
1.211411575E1,2.596001489E0,-1.178920005E0,8.932994835E0,9.376965012E0
1.212407675E1,2.089027427E0,-7.571480611E-1,6.153875216E0,6.542743229E0
1.213403875E1,2.059155464E0,-8.365653826E-1,6.163250057E0,6.551764200E0
1.214399975E1,1.000553031E0,1.473059803E-1,1.250461566E0,1.608247352E0
1.215396075E1,1.033300070E0,1.383529064E-1,1.234299277E0,1.615656296E0
1.216392175E1,-1.170106789E-1,4.032902111E-1,-2.149311343E0,2.189948343E0
1.217388375E1,-1.089246814E0,5.355069764E-1,-3.326294459E0,3.540827752E0
1.218384475E1,-2.156240294E0,7.453658485E-1,-4.571331562E0,5.109013085E0
1.219380575E1,-2.953667192E0,7.355523203E-1,-5.404667382E0,6.202871642E0
1.220376675E1,-2.900453437E0,8.634017636E-1,-5.416478757E0,6.204541472E0
1.221372875E1,-4.182746075E0,6.005102900E-1,-5.555345451E0,6.979816647E0
1.222368975E1,-4.280439600E0,4.962758504E-1,-5.560050121E0,7.034387695E0
1.223365075E1,-4.086812562E0,2.807249697E-1,-5.836559687E0,7.130657221E0
1.224361175E1,-3.920083593E0,2.223989935E-1,-6.246889215E0,7.378356291E0
1.225357375E1,-3.897824705E0,3.027278960E-1,-6.243697219E0,7.366711382E0
1.226353475E1,-3.639032495E0,6.568925786E-1,-8.076108186E0,8.882431468E0
1.227349575E1,-3.371726447E0,8.448397775E-1,-9.005541825E0,9.653086400E0
1.228345675E1,-2.950572554E0,1.002672062E0,-9.826171060E0,1.030848521E1
1.229341875E1,-2.635480135E0,1.237958903E0,-1.050531697E1,1.090137526E1
1.230337975E1,-2.567886322E0,1.305646710E0,-1.051945671E1,1.090677418E1
1.231334075E1,-2.597820851E0,1.609808197E0,-1.082345930E1,1.124666292E1
1.232330275E1,-2.602147205E0,1.624568616E0,-1.052306561E1,1.096108129E1
1.233326375E1,-2.294299487E0,1.416205864E0,-1.003047979E1,1.038652849E1
1.234322475E1,-1.882517804E0,9.765158580E-1,-9.283007995E0,9.522168552E0
1.235318575E1,-1.858563223E0,1.086823435E0,-9.264924311E0,9.511796093E0
1.236314775E1,-1.928803486E0,8.923254544E-1,-7.501773614E0,7.796995252E0
1.237310875E1,-1.862096111E0,1.056237235E0,-6.612029706E0,6.949962291E0
1.238306975E1,-1.488225142E0,9.221778291E-1,-5.882035822E0,6.137065376E0
1.239303075E1,-1.017310858E0,9.482485172E-1,-5.325566248E0,5.504157746E0
1.240299275E1,-1.059887944E0,1.001018469E0,-5.293779030E0,5.490855748E0
1.241295404E1,4.169196323E-1,1.433723829E0,-2.909685021E0,3.270420909E0
1.242291504E1,1.191233949E0,1.591466797E0,-1.139855050E0,2.291522294E0
1.243287604E1,1.893485426E0,1.764967134E0,6.869694865E-1,2.678119325E0
1.244283804E1,2.349087021E0,1.960074687E0,2.568586527E0,3.994713927E0
1.245279904E1,2.194420858E0,1.963291825E0,2.639765267E0,3.954536428E0
1.246276004E1,2.798576522E0,1.972551184E0,6.762508385E0,7.579875222E0
1.247272104E1,3.387926743E0,1.675516722E0,8.774983188E0,9.554356799E0
1.248268304E1,4.268934911E0,1.172660853E0,1.036676252E1,1.127247550E1
1.249264404E1,5.176127204E0,4.547332835E-1,1.121919651E1,1.236403840E1
1.250260504E1,5.067510495E0,3.757005626E-1,1.125505749E1,1.234897294E1
1.251256604E1,6.369259744E0,-9.622300869E-1,1.137388460E1,1.307128943E1
1.252252804E1,6.900925428E0,-1.519696903E0,1.101556957E1,1.308720839E1
1.253248904E1,7.304009671E0,-1.906114096E0,1.078225631E1,1.316202413E1
1.254245004E1,7.557686445E0,-2.341865564E0,1.075454284E1,1.335152240E1
1.255241104E1,7.534915048E0,-2.430477778E0,1.074536973E1,1.334710222E1
1.256237304E1,7.179041224E0,-3.166191262E0,1.015872794E1,1.283601003E1
1.257233404E1,6.812449454E0,-2.952756196E0,9.574858316E0,1.211635871E1
1.258229504E1,6.381000368E0,-2.340637794E0,9.018264197E0,1.129268968E1
1.259225704E1,5.899835916E0,-1.796566657E0,8.385869113E0,1.040953968E1
1.260221804E1,5.848324869E0,-1.799249360E0,8.417149377E0,1.040618113E1
1.261217904E1,3.346069157E0,-1.552252153E0,6.752385101E0,7.694177675E0
1.262214004E1,1.938364268E0,-1.731742670E0,5.454385087E0,6.042061352E0
1.263210204E1,3.936193550E-1,-1.918764986E0,3.769678881E0,4.248184805E0
1.264206304E1,-1.223407084E0,-1.819413629E0,1.932660894E0,2.922698920E0
1.265202404E1,-1.199684345E0,-1.777651061E0,1.927466812E0,2.883472582E0
1.266198504E1,-3.970426658E0,-9.333128281E-1,-9.284700179E-1,4.182991425E0
1.267194704E1,-4.810120155E0,-3.438320678E-1,-2.021141546E0,5.228813398E0
1.268190804E1,-5.155902854E0,1.322577323E-1,-2.841149222E0,5.888374585E0
1.269186904E1,-5.204234185E0,5.044083041E-1,-3.482288817E0,6.282102879E0
1.270183004E1,-5.151395236E0,5.799863438E-1,-3.493057634E0,6.250976617E0
1.271179204E1,-5.658407890E0,1.452730058E0,-4.279165492E0,7.241495824E0
1.272175304E1,-5.571310104E0,1.628633308E0,-4.668239806E0,7.448785513E0
1.273171404E1,-5.313253766E0,1.764934390E0,-5.311960947E0,7.717680227E0
1.274167504E1,-5.221034989E0,1.931773286E0,-5.932709547E0,8.135600590E0
1.275163704E1,-5.168393676E0,1.927847174E0,-5.964110264E0,8.124007580E0
1.276159804E1,-5.034668439E0,2.334644983E0,-7.187099272E0,9.080355138E0
1.277155904E1,-4.803682956E0,2.381253285E0,-7.756720403E0,9.429339773E0
1.278152004E1,-4.628530488E0,2.521522288E0,-8.283976702E0,9.818637335E0
1.279148204E1,-4.530137636E0,2.666558379E0,-8.802841662E0,1.025293626E1
1.280144304E1,-4.459813758E0,2.649862532E0,-8.844209543E0,1.025337762E1
1.281140404E1,-4.539348462E0,2.850891268E0,-9.452704718E0,1.086677928E1
1.282136504E1,-4.474268660E0,2.843996816E0,-9.487169961E0,1.086801692E1
1.283132704E1,-4.297340100E0,2.662863523E0,-9.708623899E0,1.094601992E1
1.284128804E1,-3.939237025E0,2.333887915E0,-9.485721021E0,1.053297320E1
1.285124904E1,-3.899370417E0,2.345556180E0,-9.501516105E0,1.053496710E1
1.286121004E1,-2.929022348E0,1.370748440E0,-8.356464050E0,8.960391432E0
1.287117204E1,-2.905992504E0,1.386704176E0,-8.362798923E0,8.961258100E0
1.288113304E1,-1.358002971E0,-3.068665552E-1,-6.399546567E0,6.549239300E0
1.289109404E1,-8.055872726E-1,-9.012714019E-1,-4.986720686E0,5.131144531E0
1.290105604E1,-8.064243016E-1,-8.887656695E-1,-4.982768553E0,5.125251898E0
1.291101704E1,4.486334682E-2,-6.245615691E-1,-1.129086818E0,1.291095239E0
1.292097804E1,8.015655577E-3,-6.400695544E-1,-1.116212418E0,1.286733635E0
1.293093904E1,2.681254186E0,-7.993854234E-1,3.928043116E0,4.822620012E0
1.294090104E1,4.024992290E0,-9.252461556E-1,6.359909461E0,7.583211176E0
1.295086204E1,3.894252349E0,-1.020518056E0,6.400290917E0,7.561109858E0
1.296082304E1,7.066737846E0,-9.206059514E-1,9.907300007E0,1.220413424E1
1.297078404E1,6.941267123E0,-1.044939537E0,9.944739729E0,1.217254847E1
1.298074604E1,8.400840908E0,-5.105825253E-1,1.274076482E1,1.526964016E1
1.299070704E1,7.959490147E0,-7.670946135E-1,1.260496791E1,1.492739541E1
1.300066804E1,6.693032938E0,-1.287527797E0,1.166020638E1,1.350610346E1
1.301062904E1,4.982647516E0,-1.484966927E0,1.057504034E1,1.178403077E1
1.302059104E1,5.128387027E0,-1.551886410E0,1.048470203E1,1.177445037E1
1.303055204E1,2.432037669E0,-1.590337261E0,9.684784800E0,1.011133208E1
1.304051304E1,1.999022991E0,-1.509138732E0,1.001067878E1,1.031926753E1
1.305047404E1,2.385828585E0,-9.676177114E-1,1.021517930E1,1.053462625E1
1.306043604E1,3.607610728E0,-2.104521233E0,1.084829359E1,1.162451455E1
1.307039704E1,3.563525938E0,-2.125348284E0,1.086583875E1,1.163109084E1
1.308035804E1,6.508334599E0,-2.505803803E0,1.210765404E1,1.397257164E1
1.309031904E1,7.218522794E0,-3.093833722E0,1.057939067E1,1.317582579E1
1.310028104E1,7.125678949E0,-3.149087572E0,1.061886171E1,1.317012821E1
1.311024204E1,5.223757453E0,-3.094120821E0,4.334640951E0,7.459915398E0
1.312020304E1,5.301502032E0,-3.120644376E0,4.290724853E0,7.500310985E0
1.313016404E1,1.023407750E0,-1.913109266E0,-8.116701311E-1,2.316497116E0
1.314012604E1,-1.109904734E0,-1.281753233E0,-2.732496845E0,3.215792107E0
1.315008704E1,-2.745578821E0,-6.493692586E-1,-4.054318416E0,4.939370538E0
1.316004804E1,-3.821015388E0,-1.508394527E-1,-4.806330575E0,6.141964240E0
1.317000904E1,-3.655941474E0,-5.362920016E-2,-4.855230839E0,6.077997257E0
1.317997104E1,-4.560169520E0,-1.769805998E-2,-6.341926934E0,7.811241675E0
1.318993204E1,-4.680481537E0,-1.144126149E-1,-6.907256793E0,8.344470868E0
1.319989304E1,-4.877514286E0,6.447476193E-2,-7.327883853E0,8.802964521E0
1.320985404E1,-5.004135448E0,3.401158699E-1,-7.986182102E0,9.430596744E0
1.321981604E1,-4.917752777E0,3.499561492E-1,-8.013374578E0,9.408556415E0
1.322977704E1,-4.710070787E0,7.065531273E-1,-9.242817743E0,1.039777207E1
1.323973804E1,-4.295771877E0,9.392921908E-1,-1.004609653E1,1.096631120E1
1.324969904E1,-3.837209252E0,1.364989956E0,-1.088830024E1,1.162507869E1
1.325966104E1,-3.483935977E0,1.771234765E0,-1.159920355E1,1.223995937E1
1.326962204E1,-3.379835950E0,1.723705819E0,-1.163572292E1,1.223864783E1
1.327958304E1,-3.183994280E0,2.004526682E0,-1.255334051E1,1.310504882E1
1.328954404E1,-2.906948524E0,1.747788599E0,-1.246832199E1,1.292146153E1
1.329950604E1,-2.504511860E0,1.344879919E0,-1.218205635E1,1.250934764E1
1.330946704E1,-2.116604943E0,8.212746213E-1,-1.154714930E1,1.176822694E1
1.331942804E1,-2.098388381E0,8.086230008E-1,-1.155351575E1,1.177033691E1
1.332939004E1,-1.156826447E0,-1.578808160E-1,-1.042594921E1,1.049111961E1
1.333935104E1,-6.845427458E-1,-6.819098908E-1,-9.856936769E0,9.904181054E0
1.334931204E1,-6.728588395E-1,-6.781840450E-1,-9.859101409E0,9.905279057E0
1.335927304E1,-1.731338628E-1,-1.187172473E0,-8.257072493E0,8.343776122E0
1.336923504E1,-1.700707988E-1,-1.164297727E0,-8.254155318E0,8.337601171E0
1.337919604E1,4.214216959E-1,-1.101711323E0,-5.570896706E0,5.694405517E0
1.338915704E1,6.060399288E-1,-7.748048982E-1,-3.137612996E0,3.288194388E0
1.339911804E1,7.752880244E-1,-3.690860461E-1,2.570196265E-1,8.963007969E-1
1.340908004E1,1.247776378E0,-9.872833595E-2,4.434634770E0,4.607893089E0
1.341904088E1,1.104937817E0,-6.113030076E-2,4.478955495E0,4.613639217E0
1.342900187E1,4.084528055E0,-3.756387283E-1,1.275705750E1,1.340026082E1
1.343896287E1,5.904960415E0,-5.304161346E-1,1.526976511E1,1.638034265E1
1.344892488E1,7.377622608E0,-6.057898141E-1,1.596858573E1,1.760090983E1
1.345888588E1,7.667127610E0,-2.090027301E-1,1.536280133E1,1.717102771E1
1.346884688E1,7.547055037E0,-3.662935621E-1,1.538379985E1,1.713923885E1
1.347880788E1,6.205196228E0,1.155677396E0,1.382529936E1,1.519799174E1
1.348876987E1,6.390040163E0,7.316862144E-1,1.377734518E1,1.520471039E1
1.349873087E1,6.711227134E0,-1.413418204E-1,1.432554269E1,1.582029458E1
1.350869188E1,7.005830909E0,-7.076431945E-1,1.472790013E1,1.632462765E1
1.351865288E1,6.961286820E0,-6.997121774E-1,1.474724155E1,1.632269109E1
1.352861487E1,6.507727658E0,-1.946243683E0,1.255478126E1,1.427448480E1
1.353857587E1,6.462467870E0,-1.937784955E0,1.257505005E1,1.427061264E1
1.354853687E1,3.810514373E0,-7.923632097E-1,7.559556969E0,8.502632581E0
1.355849787E1,2.213288653E0,-8.284176531E-1,4.252792211E0,4.865302052E0
1.356845988E1,2.228326815E0,-8.208917018E-1,4.247187654E0,4.865994919E0
1.357842088E1,-1.174800349E0,1.138387106E-1,-2.230405793E0,2.523454995E0
1.358838187E1,-1.115785279E0,1.336148711E-1,-2.252943885E0,2.517654836E0
1.359834287E1,-2.971539499E0,8.566203821E-1,-5.026284117E0,5.901472485E0
1.360830488E1,-4.862158036E0,1.241563273E0,-8.541090469E0,9.906174162E0
1.361826588E1,-4.839693325E0,1.277101773E0,-8.545446644E0,9.903447823E0
1.362822688E1,-5.263879877E0,1.341688216E0,-9.743515989E0,1.115547679E1
1.363818788E1,-5.793029505E0,1.421300689E0,-1.058948296E1,1.215386506E1
1.364814987E1,-6.323222276E0,7.923469837E-1,-1.038603026E1,1.218526070E1
1.365811087E1,-6.563335263E0,-1.761095108E-1,-8.828623205E0,1.100240756E1
1.366807187E1,-6.797678218E0,-2.018385753E-1,-8.722437769E0,1.106029333E1
1.367803288E1,-6.527095975E0,-3.811304332E-1,-6.627248254E0,9.309600512E0
1.368799488E1,-6.782585385E0,-5.086977484E-1,-6.505713292E0,9.412042464E0
1.369795587E1,-5.491796742E0,-1.067303748E0,-8.571583114E0,1.023577090E1
1.370791687E1,-4.616226484E0,-1.177321450E0,-1.024988837E1,1.130291309E1
1.371787787E1,-4.762817935E0,-1.310215724E0,-1.016765079E1,1.130407991E1
1.372783988E1,-2.193950157E0,-1.430301454E0,-1.170743200E1,1.199679723E1
1.373780088E1,-2.288255221E0,-1.446740316E0,-1.164482002E1,1.195537548E1
1.374776188E1,-1.160848893E0,-1.565029196E0,-9.801349629E0,9.993164718E0
1.375772287E1,-1.494926636E0,-1.725558070E0,-8.115065260E0,8.430103230E0
1.376768487E1,-1.548889419E0,-1.635677156E0,-8.068979845E0,8.377525526E0
1.377764588E1,-2.959112120E0,-2.058256162E0,-4.766718028E0,5.976149573E0
1.378760688E1,-3.005252498E0,-1.957573102E0,-4.721778667E0,5.929488073E0
1.379756788E1,-3.428213766E0,-1.441530739E0,-1.658573830E0,4.072042196E0
1.380752987E1,-2.565938907E0,-8.461298195E-1,-7.965895772E-2,2.703021216E0
1.381749087E1,-2.629575325E0,-7.531847452E-1,-1.683413386E-2,2.735367806E0
1.382745187E1,-1.371286091E0,7.963542268E-2,1.683163126E0,2.172511324E0
1.383741288E1,-6.599869251E-2,1.177697645E0,3.275122551E0,3.481056634E0
1.384737488E1,2.505465834E0,2.691544116E0,5.536885207E0,6.646718481E0
1.385733588E1,3.212804680E0,3.169636441E0,6.086720529E0,7.577392420E0
1.386729687E1,3.390595704E0,3.247681568E0,6.486979982E0,8.007776476E0
1.387725787E1,3.213303448E0,3.258119140E0,6.668634846E0,8.087728364E0
1.388721988E1,3.274472340E0,3.341169775E0,6.638022333E0,8.120894352E0
1.389718088E1,4.219561899E0,2.777103499E0,8.228393655E0,9.655230117E0
1.390714188E1,5.275629272E0,2.118585395E0,8.759017366E0,1.044227243E1
1.391710387E1,6.360138672E0,1.466443533E0,9.066444669E0,1.117149227E1
1.392706487E1,7.444051071E0,7.446740498E-1,8.994772423E0,1.169933189E1
1.393702587E1,7.479329077E0,7.141941226E-1,8.960397227E0,1.169355186E1
1.394698688E1,8.803218808E0,-4.809115604E-1,7.969285988E0,1.188433660E1
1.395694788E1,8.820713092E0,-7.147651032E-1,7.258318943E0,1.144548219E1
1.396690987E1,8.544939691E0,-5.431462540E-1,6.464314420E0,1.072839052E1
1.397687087E1,8.195814723E0,-1.819833313E-1,6.038288042E0,1.018162165E1
1.398683187E1,8.195869102E0,-1.972344777E-1,6.034917122E0,1.017995071E1
1.399679388E1,8.038014160E0,8.876804262E-2,6.474434781E0,1.032162086E1
1.400675488E1,7.456906174E0,4.634927049E-2,6.191257635E0,9.692227250E0
1.401671588E1,6.241589298E0,-1.291575386E-1,5.925506946E0,8.607308012E0
1.402667687E1,6.231116935E0,-8.631089643E-2,5.943237458E0,8.611407511E0
1.403663887E1,4.703893788E0,-3.607144412E-1,5.584872136E0,7.310781658E0
1.404659988E1,1.895024121E0,-1.112689032E0,3.972735724E0,4.540024497E0
1.405656088E1,6.729852855E-2,-1.205547202E0,2.826625323E0,3.073708487E0
1.406652188E1,-2.047221882E0,-8.344372885E-1,1.610210924E0,2.734992183E0
1.407648387E1,-3.604171103E0,-5.639067931E-1,5.708730197E-1,3.692416041E0
1.408644487E1,-3.570357240E0,-5.422583543E-1,5.516157997E-1,3.653186956E0
1.409640587E1,-4.290067041E0,-8.256366442E-1,-1.936986079E0,4.778939857E0
1.410636687E1,-4.052379479E0,-7.477388678E-1,-3.315874720E0,5.289226599E0
1.411632888E1,-3.941396402E0,-5.714964791E-1,-4.346075181E0,5.894877717E0
1.412628988E1,-3.894926240E0,-4.105982074E-1,-5.085597687E0,6.418905292E0
1.413625087E1,-3.884958492E0,-3.885609287E-1,-5.086851915E0,6.412483488E0
1.414621187E1,-4.426024160E0,-3.267529356E-1,-5.837761289E0,7.333206272E0
1.415617388E1,-5.013940644E0,-1.536687742E-1,-6.260702677E0,8.022444321E0
1.416613488E1,-5.527805650E0,-8.587761775E-2,-6.748054068E0,8.723545379E0
1.417609588E1,-5.842223884E0,-1.803434797E-1,-7.161059867E0,9.243640089E0
1.418605688E1,-5.762801739E0,-1.085984360E-1,-7.194556811E0,9.218640095E0
1.419601887E1,-6.401917613E0,1.167474081E-1,-7.744493290E0,1.004864943E1
1.420597987E1,-6.277490033E0,4.775377169E-1,-7.953676261E0,1.014376111E1
1.421594088E1,-6.200974538E0,5.532258305E-1,-7.978988857E0,1.012039561E1
1.422590188E1,-5.957702301E0,8.865808573E-1,-7.975944797E0,9.994795532E0
1.423586387E1,-5.619361353E0,9.742107394E-1,-7.698807825E0,9.581124699E0
1.424582487E1,-3.919616693E0,5.291344249E-1,-6.173609569E0,7.331905167E0
1.425578587E1,-3.148419235E0,5.071509406E-1,-4.927009504E0,5.869000631E0
1.426574687E1,-2.351684647E0,4.370206055E-1,-3.476651516E0,4.220013442E0
1.427570888E1,-1.534171978E0,4.133393821E-1,-2.000096247E0,2.554391924E0
1.428566988E1,-1.551472719E0,4.520540893E-1,-1.974592447E0,2.551555570E0
1.429563088E1,2.757675540E-1,1.412264840E0,1.547242259E0,2.112935950E0
1.430559187E1,1.480124994E0,2.014357021E0,3.435081321E0,4.248315889E0
1.431555387E1,2.514142517E0,2.564009034E0,4.751204195E0,5.955585296E0
1.432551488E1,3.246253678E0,3.175250061E0,5.538144697E0,7.161803025E0
1.433547588E1,3.244191949E0,3.126068545E0,5.520972009E0,7.125883656E0
1.434543688E1,4.113988082E0,3.706607597E0,6.295290127E0,8.384182464E0
1.435539887E1,4.389052216E0,3.170383131E0,6.382275061E0,8.369500792E0
1.436535987E1,4.616976097E0,2.363741605E0,6.807172927E0,8.558115792E0
1.437532087E1,5.148306736E0,1.482517382E0,7.355562817E0,9.099847493E0
1.438528188E1,5.184154261E0,1.359190687E0,7.295099684E0,9.052145278E0
1.439524388E1,6.858170587E0,-4.537832572E-1,8.098401865E0,1.062188947E1
1.440520487E1,7.983124008E0,-1.330785937E0,8.009337076E0,1.138642791E1
1.441516575E1,8.931502626E0,-1.906296676E0,7.560724658E0,1.185623311E1
1.442512675E1,8.884333722E0,-2.105836857E0,7.544629612E0,1.184429696E1
1.443508875E1,9.613031278E0,-2.221245837E0,7.388923522E0,1.232641449E1
1.444504975E1,8.993378447E0,-1.092259738E0,7.794098729E0,1.195081011E1
1.445501075E1,8.952806371E0,-1.217437223E0,7.799285209E0,1.193581774E1
1.446497175E1,5.896548611E0,-4.415931281E-1,8.346800357E0,1.022904522E1
1.447493375E1,4.386772386E0,-5.374335974E-1,8.657307388E0,9.720163479E0
1.448489475E1,4.485604949E0,-5.550687998E-1,8.594781357E0,9.710768235E0
1.449485575E1,1.630619753E0,-1.349590875E0,8.764680394E0,9.016647865E0
1.450481675E1,1.764663956E0,-1.345928179E0,8.688798738E0,8.967763659E0
1.451477875E1,-4.306538647E-1,-1.900062667E0,7.120044572E0,7.381784039E0
1.452473975E1,-8.737690231E-1,-2.132659935E0,5.752528181E0,6.197038904E0
1.453470075E1,-7.609200999E-1,-2.151355238E0,5.692267946E0,6.132637534E0
1.454466175E1,-1.448155050E0,-2.366605864E0,1.896651401E0,3.360842588E0
1.455462375E1,-1.321708427E0,-2.366623113E0,1.836032147E0,3.273962762E0
1.456458475E1,-2.334787070E0,-1.624218222E0,-2.535712311E0,3.810400559E0
1.457454575E1,-2.745994265E0,-1.234845407E0,-4.487818705E0,5.404243186E0
1.458450675E1,-2.590065688E0,-1.173173216E0,-4.545633050E0,5.361674690E0
1.459446875E1,-3.038942108E0,-1.239137263E0,-6.957960924E0,7.693104088E0
1.460442975E1,-2.891514214E0,-1.143837588E0,-7.000654369E0,7.660181491E0
1.461439075E1,-3.771470176E0,-1.154315653E0,-7.336024931E0,8.329087207E0
1.462435175E1,-3.642705716E0,-1.066963952E0,-7.366712288E0,8.287108479E0
1.463431375E1,-3.981226466E0,-8.910498843E-1,-7.297272509E0,8.360282300E0
1.464427475E1,-4.124573589E0,-5.355630000E-1,-8.946113064E0,9.865691763E0
1.465423575E1,-4.022501961E0,-5.536956543E-1,-8.980823890E0,9.856079274E0
1.466419675E1,-3.860466260E0,2.300044669E-1,-1.106137899E1,1.171794381E1
1.467415875E1,-3.620969277E0,5.987458196E-1,-1.201341797E1,1.256153360E1
1.468411975E1,-3.376150743E0,9.209149767E-1,-1.267484448E1,1.314907452E1
1.469408075E1,-3.286974857E0,1.215027147E0,-1.314773337E1,1.360674051E1
1.470404175E1,-3.268482160E0,1.140011171E0,-1.316319224E1,1.361073954E1
1.471400375E1,-3.065985481E0,1.063898111E0,-1.352652535E1,1.391039303E1
1.472396475E1,-2.736161295E0,7.116835474E-1,-1.319960986E1,1.349899154E1
1.473392575E1,-2.269797023E0,3.984028159E-1,-1.275006774E1,1.295665584E1
1.474388675E1,-1.701672194E0,-3.832089722E-2,-1.222481353E1,1.234273967E1
1.475384875E1,-1.704768295E0,-4.322232574E-2,-1.222456093E1,1.234293291E1
1.476380975E1,-7.032776633E-1,-8.648862255E-1,-1.099816124E1,1.105450941E1
1.477377075E1,-2.303957918E-1,-1.108949153E0,-1.036534048E1,1.042703858E1
1.478373175E1,2.259489843E-1,-1.445381716E0,-9.627507230E0,9.738022218E0
1.479369375E1,4.497707516E-1,-1.621344607E0,-8.758804527E0,8.918952226E0
1.480365475E1,3.864956921E-1,-1.606374712E0,-8.738869615E0,8.893686568E0
1.481361575E1,6.583605221E-1,-1.668499770E0,-6.645862865E0,6.883663507E0
1.482357675E1,6.783585843E-1,-1.629823363E0,-5.520086741E0,5.795502755E0
1.483353875E1,5.828846624E-1,-1.530506066E0,-4.351585597E0,4.649569932E0
1.484349975E1,3.974103972E-1,-1.283187555E0,-3.146539355E0,3.421288535E0
1.485346075E1,3.155245274E-1,-1.261222635E0,-3.116274167E0,3.376596355E0
1.486342175E1,7.445610523E-1,-7.313779199E-1,-1.792563361E-1,1.058970092E0
1.487338375E1,8.454942271E-1,-9.110912159E-2,1.246297764E0,1.508780791E0
1.488334475E1,7.509555674E-1,-5.298337519E-2,1.286465212E0,1.490548303E0
1.489330575E1,1.992527319E0,3.006581278E-1,4.691104174E0,5.105587018E0
1.490326675E1,1.886876026E0,3.563348767E-1,4.741241124E0,5.115334112E0
1.491322875E1,3.405656378E0,6.872349501E-2,8.808818686E0,9.444496012E0
1.492318975E1,3.972511775E0,-1.849007995E-1,1.026996303E1,1.101304585E1
1.493315075E1,4.407517723E0,-6.029021667E-1,1.109706689E1,1.195552580E1
1.494311175E1,4.683910344E0,-9.460713065E-1,1.124938452E1,1.222222235E1
1.495307375E1,4.636393531E0,-9.406771038E-1,1.127192787E1,1.222445812E1
1.496303475E1,5.145995332E0,-7.592463344E-1,1.072292461E1,1.191800466E1
1.497299575E1,5.674252675E0,-6.409804045E-1,1.037113390E1,1.183927437E1
1.498295675E1,6.275041219E0,-6.973443474E-1,1.027831286E1,1.206259287E1
1.499291875E1,6.629206486E0,-7.146263780E-1,1.021230481E1,1.219623872E1
1.500287975E1,6.559082583E0,-6.988874276E-1,1.024966852E1,1.218875353E1
1.501284075E1,7.096927021E0,-1.583112442E0,8.422153425E0,1.112678239E1
1.502280175E1,6.270812513E0,-1.118822615E0,7.759196699E0,1.003892360E1
1.503276275E1,5.022748890E0,-1.372873756E0,6.836349948E0,8.593513215E0
1.504272475E1,3.752548293E0,-2.084441310E0,5.744150290E0,7.170897909E0
1.505268575E1,3.749994230E0,-1.984125162E0,5.768023303E0,7.160258529E0
1.506264675E1,1.120547836E0,-2.742127209E0,3.703425835E0,4.742388849E0
1.507260775E1,-1.276926649E-1,-2.600468470E0,2.834054795E0,3.848455308E0
1.508256975E1,-1.250457180E0,-2.443952248E0,1.833805527E0,3.301422188E0
1.509253075E1,-2.265233563E0,-2.120524916E0,8.690120208E-1,3.222280389E0
1.510249175E1,-2.229656764E0,-1.994293470E0,8.885481530E-1,3.120591859E0
1.511245275E1,-3.766980099E0,-1.093699176E0,-1.196994626E0,4.101111201E0
1.512241475E1,-4.073552247E0,-5.554448488E-1,-2.175568850E0,4.651391911E0
1.513237575E1,-4.258225443E0,-1.520276070E-5,-2.817829356E0,5.106138091E0
1.514233675E1,-4.279466039E0,5.065741128E-1,-3.289521904E0,5.421383704E0
1.515229775E1,-4.254598415E0,6.139950657E-1,-3.261773942E0,5.396088108E0
1.516225975E1,-3.757905805E0,1.220577324E0,-3.980761612E0,5.608754590E0
1.517222075E1,-3.427790428E0,1.455414661E0,-4.529164367E0,5.863557701E0
1.518218175E1,-3.088729103E0,1.693913816E0,-5.055219063E0,6.161560782E0
1.519214275E1,-2.639427591E0,2.096928477E0,-5.548201908E0,6.492012897E0
1.520210475E1,-2.601823854E0,2.174631249E0,-5.533081008E0,6.489491034E0
1.521206575E1,-1.963866314E0,2.938654174E0,-6.288743584E0,7.213927857E0
1.522202675E1,-1.923508247E0,3.010793320E0,-6.275641143E0,7.221387135E0
1.523198775E1,-1.532538850E0,3.751946323E0,-6.305875341E0,7.495988284E0
1.524194975E1,-1.267385454E0,4.024126318E0,-5.843264104E0,7.207190430E0
1.525191075E1,-1.272335415E0,4.080235029E0,-5.813840330E0,7.215808665E0
1.526187175E1,-4.756902891E-1,4.675573677E0,-3.294634709E0,5.739502446E0
1.527183275E1,-6.159427732E-2,4.981723655E0,-1.288233994E0,5.145960674E0
1.528179475E1,1.319529462E-1,4.970863037E0,9.393844306E-1,5.060566571E0
1.529175575E1,1.765993613E-1,4.818893025E0,3.198029351E0,5.786217163E0
1.530171675E1,5.440103263E-2,4.801920312E0,3.255895151E0,5.801917907E0
1.531167775E1,9.559928620E-1,3.990157795E0,7.383665705E0,8.447117901E0
1.532163975E1,8.511952624E-1,3.946936639E0,7.422485370E0,8.449623144E0
1.533160075E1,1.642958840E0,2.970012207E0,1.049563983E1,1.103080875E1
1.534156175E1,1.875883260E0,2.226684332E0,1.157380675E1,1.193440673E1
1.535152275E1,1.857486166E0,2.157895348E0,1.155099443E1,1.189673230E1
1.536148475E1,2.269647334E0,-3.629404762E-1,1.188715904E1,1.210733558E1
1.537144575E1,2.292442997E0,-4.588058692E-1,1.182863075E1,1.205745840E1
1.538140675E1,3.430239242E0,-3.648305595E0,1.136607740E1,1.242032167E1
1.539136775E1,3.992891953E0,-4.739705353E0,1.089258157E1,1.253221155E1
1.540132975E1,4.485754053E0,-5.282362926E0,9.638150332E0,1.187094307E1
1.541129075E1,4.826317235E0,-5.499071263E0,7.785302178E0,1.068382201E1
1.542125150E1,4.893757266E0,-5.600624535E0,7.708558057E0,1.071156957E1
1.543121250E1,4.567598992E0,-4.252826124E0,3.136288601E0,6.984683013E0
1.544117450E1,3.924393284E0,-2.937839364E0,1.130115343E0,5.030797498E0
1.545113550E1,3.152278105E0,-1.854772181E0,-3.170863187E-1,3.671182483E0
1.546109650E1,2.492591434E0,-1.184813414E0,-1.366440504E0,3.079602983E0
1.547105750E1,2.496308801E0,-1.177184259E0,-1.365744100E0,3.079379379E0
1.548101950E1,5.544560847E-1,-5.635002655E-1,-2.483436449E0,2.606225373E0
1.549098050E1,-8.679919741E-1,-1.946678424E-1,-2.811257671E0,2.948639572E0
1.550094150E1,-8.641912839E-1,-1.349645546E-1,-2.791957766E0,2.925759760E0
1.551090250E1,-3.366404896E0,5.106873366E-1,-3.598677059E0,4.954186115E0
1.552086450E1,-3.342907275E0,5.725134560E-1,-3.587697158E0,4.937040774E0
1.553082550E1,-4.546991650E0,6.410027701E-1,-4.727955081E0,6.590870721E0
1.554078650E1,-4.749657022E0,8.802442297E-1,-5.504085250E0,7.323184155E0
1.555074750E1,-4.714161792E0,9.169606510E-1,-5.507500609E0,7.307304646E0
1.556070950E1,-4.511720076E0,1.702513609E0,-7.498422575E0,8.915184336E0
1.557067050E1,-4.480666098E0,1.720346739E0,-7.506622126E0,8.909844966E0
1.558063150E1,-4.000964327E0,2.267355518E0,-9.533343084E0,1.058457590E1
1.559059250E1,-4.040109974E0,2.744357045E0,-1.025686527E1,1.136033755E1
1.560055450E1,-4.013515668E0,2.780292571E0,-1.025513449E1,1.135808603E1
1.561051550E1,-3.970106231E0,3.335430733E0,-1.088789561E1,1.205956519E1
1.562047650E1,-3.937879302E0,3.403456655E0,-1.087479200E1,1.205618147E1
1.563043750E1,-2.972056978E0,2.998727298E0,-9.842986482E0,1.071026942E1
1.564039850E1,-2.387843536E0,2.703051437E0,-8.563501092E0,9.292030713E0
1.565036050E1,-1.857180649E0,2.370498355E0,-6.921979498E0,7.548654356E0
1.566032150E1,-1.441221422E0,2.225379526E0,-5.196070887E0,5.833402599E0
1.567028250E1,-1.513673978E0,2.287357381E0,-5.131085517E0,5.818182816E0
1.568024350E1,-5.076119936E-1,2.041243104E0,-1.673697068E0,2.688048590E0
1.569020550E1,-3.604577485E-1,1.901818293E0,-3.155075705E-1,1.961220955E0
1.570016650E1,-5.692486632E-1,1.736084520E0,6.960402721E-1,1.955122902E0
1.571012750E1,-8.160543734E-1,1.714202193E0,2.008782871E0,2.763990326E0
1.572008850E1,-8.799562544E-1,1.704345249E0,2.040061381E0,2.800172526E0
1.573005050E1,-9.469121361E-1,1.881571724E0,4.957134359E0,5.386105811E0
1.574001150E1,-9.202438626E-1,2.431255604E0,6.430835018E0,6.936388945E0
1.574997250E1,-6.937008011E-1,3.355079716E0,7.700842656E0,8.428567987E0
1.575993350E1,-1.530844912E-1,4.027460985E0,8.386436877E0,9.304633273E0
1.576989550E1,-8.278867990E-2,3.959936461E0,8.315392038E0,9.210520913E0
1.577985650E1,1.130226732E0,3.694285175E0,8.460054492E0,9.300412756E0
1.578981750E1,1.809570280E0,2.508121639E0,8.661611524E0,9.197213325E0
1.579977850E1,2.915206254E0,7.690275568E-1,9.225895901E0,9.706028336E0
1.580974050E1,4.137560839E0,-1.096837669E0,9.828725123E0,1.072036847E1
1.581970150E1,4.137868695E0,-1.312447314E0,9.749242167E0,1.067202877E1
1.582966250E1,5.928275018E0,-4.628327297E0,9.510568179E0,1.212504702E1
1.583962350E1,6.009571196E0,-5.645035307E0,8.321334563E0,1.171434926E1
1.584958550E1,6.021861459E0,-5.860859545E0,8.255128294E0,1.177962789E1
1.585954650E1,6.609534114E0,-6.176901551E0,7.213580727E0,1.157047107E1
1.586950750E1,6.594911982E0,-6.314407598E0,7.188167558E0,1.162042857E1
1.587946850E1,6.219310237E0,-5.769289809E0,7.281882053E0,1.117990747E1
1.588943050E1,5.395376741E0,-5.516281373E0,7.681555030E0,1.088787114E1
1.589939150E1,4.363235589E0,-5.365669962E0,7.306592386E0,1.006054329E1
1.590935250E1,3.218983141E0,-4.992166783E0,6.192010757E0,8.580476610E0
1.591931350E1,3.246524696E0,-4.950651551E0,6.187386194E0,8.563446812E0
1.592927550E1,4.893140092E-1,-3.439098358E0,3.597436865E0,5.000837701E0
1.593923650E1,-4.691314673E-1,-2.849180372E0,2.009319060E0,3.517851079E0
1.594919750E1,-1.438232325E0,-2.037513457E0,1.630373293E-1,2.499310801E0
1.595915850E1,-2.289607097E0,-1.065339303E0,-1.725894578E0,3.058751474E0
1.596911950E1,-2.197125195E0,-1.023780949E0,-1.756585443E0,2.993506134E0
1.597908150E1,-2.070932634E0,-3.825173928E-1,-4.385353852E0,4.864813453E0
1.598904250E1,-2.007115245E0,-3.710583119E-1,-4.409366612E0,4.858879480E0
1.599900350E1,-1.467465480E0,2.402119513E-1,-6.951010339E0,7.108284001E0
1.600896450E1,-1.081553924E0,4.708296449E-1,-8.213456358E0,8.297728893E0
1.601892650E1,-1.051597177E0,4.439825928E-1,-8.232099620E0,8.310862851E0
1.602888750E1,-5.956924036E-1,5.856863558E-1,-9.763385997E0,9.799060367E0
1.603884850E1,-5.746213773E-1,5.623884174E-1,-9.777266117E0,9.810270291E0
1.604880950E1,-1.246656490E0,1.023554808E0,-1.062711564E1,1.074883267E1
1.605877150E1,-1.787353199E0,1.009189368E0,-1.063578823E1,1.083203979E1
1.606873250E1,-1.751239918E0,1.033694757E0,-1.064395796E1,1.083647577E1
1.607869350E1,-2.662242841E0,1.234130731E0,-1.023926632E1,1.065144077E1
1.608865450E1,-2.602387818E0,1.280654249E0,-1.025035381E1,1.065280484E1
1.609861650E1,-2.757289624E0,1.374362311E0,-1.011186836E1,1.057078046E1
1.610857750E1,-3.053725916E0,1.784290428E0,-1.016559608E1,1.076328379E1
1.611853850E1,-3.003946230E0,1.819293323E0,-1.017419734E1,1.076326217E1
1.612849950E1,-3.230015083E0,2.003483393E0,-9.697967348E0,1.041621399E1
1.613846150E1,-3.208416637E0,2.035357296E0,-9.697004896E0,1.041482216E1
1.614842250E1,-2.738828795E0,1.711445377E0,-8.003938342E0,8.630947655E0
1.615838350E1,-2.338633954E0,1.678390920E0,-6.781305429E0,7.366974153E0
1.616834450E1,-2.345575476E0,1.711735545E0,-6.769715078E0,7.366193395E0
1.617830650E1,-2.102329843E0,1.716831686E0,-3.629355646E0,4.532055186E0
1.618826750E1,-2.119091179E0,1.749206842E0,-3.614321870E0,4.540219662E0
1.619822850E1,-1.537654287E0,2.000826272E0,6.033051860E-1,2.594544974E0
1.620818950E1,-9.474559271E-1,2.340111837E0,3.059494779E0,3.966649020E0
1.621815050E1,-1.014140498E0,2.339711303E0,3.083599926E0,4.001414554E0
1.622811250E1,-2.604069185E-1,2.685883134E0,5.320918297E0,5.966066669E0
1.623807350E1,8.260955045E-1,2.686271682E0,7.182299293E0,7.712581439E0
1.624803450E1,3.670163656E0,2.173598338E0,9.745694661E0,1.063828912E1
1.625799550E1,5.462202229E0,1.457404030E0,1.074310569E1,1.213976934E1
1.626795750E1,5.392971781E0,1.383425203E0,1.075213145E1,1.210811053E1
1.627791850E1,7.889200183E0,-3.880830650E-1,1.164916684E1,1.407455776E1
1.628787950E1,7.894345148E0,-4.851909913E-1,1.162274678E1,1.405860371E1
1.629784050E1,7.771492224E0,-1.487076602E0,9.753357437E0,1.255927822E1
1.630780250E1,7.013993622E0,-1.628223711E0,8.407161164E0,1.106921758E1
1.631776350E1,6.200814325E0,-1.572894579E0,7.346035949E0,9.741064614E0
1.632772450E1,5.284880152E0,-1.396975248E0,6.968674777E0,8.856857582E0
1.633768550E1,5.296728365E0,-1.467589294E0,6.950678802E0,8.861212418E0
1.634764750E1,4.465648694E0,-1.774203250E0,6.912994666E0,8.418985134E0
1.635760850E1,4.489950307E0,-2.482748231E0,6.671833273E0,8.416475020E0
1.636756950E1,4.093953474E0,-2.913872505E0,5.909904821E0,7.757453385E0
1.637753050E1,3.380821791E0,-3.143682990E0,4.293640859E0,6.304605503E0
1.638749250E1,3.279191628E0,-3.188063649E0,4.331351307E0,6.299004025E0
1.639745350E1,8.451898795E-1,-3.373837877E0,7.622430325E-1,3.560637919E0
1.640741450E1,-8.222196776E-1,-2.987623728E0,-7.140801018E-1,3.179913698E0
1.641737542E1,-2.270938984E0,-2.355428034E0,-1.969565011E0,3.818951613E0
1.642733742E1,-2.214803667E0,-2.254814117E0,-1.977522486E0,3.728288773E0
1.643729842E1,-3.837140255E0,-2.144383456E0,-3.069551405E0,5.361359116E0
1.644725942E1,-4.398498100E0,-1.985166990E0,-3.482121586E0,5.950869202E0
1.645722042E1,-4.797855036E0,-1.923691411E0,-3.919941798E0,6.487368133E0
1.646718242E1,-5.074142992E0,-1.935875547E0,-4.170925344E0,6.847711987E0
1.647714342E1,-4.995255867E0,-1.720781041E0,-4.534048546E0,6.962130765E0
1.648710442E1,-4.520095335E0,-1.493863466E0,-4.912193245E0,6.840506733E0
